participant,stimulus,classifyEnc,classifyMemory,trialNo,choiceMemory,rt,acc,age,sex,ratingRt,ratingConfidence,rtResidual,group,ratingRT,outlierTrial,memory_hits,memoryHits
4,archery.jpg,nonliving,old,1,old,1.09054708481,1,9,F,1.47361707687,4,,Children,,,1,
4,noisemaker.jpg,nonliving,old,2,old,1.22421789169,1,9,F,0.437490940094,4,,Children,,,1,
4,clothespin.jpg,nonliving,old,3,old,0.772959947586,1,9,F,2.42674803734,3,,Children,,,1,
4,saw.png,nonliving,old,6,old,1.6389811039,1,9,F,0.955705881119,1,,Children,,,,
4,tricycle.png,nonliving,old,7,old,1.29102778435,1,9,F,0.437511920929,4,,Children,,,1,
4,stroller.png,nonliving,old,8,old,0.973465919495,1,9,F,0.387360811234,4,,Children,,,1,
4,tap_bathroom.jpg,nonliving,old,9,old,4.31605386734,1,9,F,0.738258838654,4,,Children,,,1,
4,puppettheatre.png,nonliving,old,14,old,0.957020998001,1,9,F,0.454359054565,4,,Children,,,1,
4,boots_hiking.png,nonliving,old,15,old,1.07352304459,1,9,F,1.97527694702,2,,Children,,,,
4,car_FerrariRed.jpg,nonliving,old,16,old,0.990319013596,1,9,F,0.537746191025,4,,Children,,,1,
4,building_door.png,nonliving,old,17,old,1.04049491882,1,9,F,0.785566091537,4,,Children,,,1,
4,goggles_swim.png,nonliving,old,18,old,1.62531399727,1,9,F,0.789011001587,4,,Children,,,1,
4,diaper changing station.png,nonliving,old,19,old,1.17360806465,1,9,F,0.735409975052,4,,Children,,,1,
4,penguin.png,living,old,20,old,1.67555999756,1,9,F,0.387691020966,4,,Children,,,1,
4,boot_rain.png,nonliving,old,22,old,1.00709986687,1,9,F,0.437565088272,4,,Children,,,1,
4,tuxedo.jpg,nonliving,old,23,old,1.17330312729,1,9,F,0.437737941742,4,,Children,,,1,
4,cinnamonroll.png,nonliving,old,25,old,0.689275979996,1,9,F,0.487721920013,4,,Children,,,1,
4,gum_pack.png,nonliving,old,26,old,0.639295101166,1,9,F,0.621651887894,3,,Children,,,1,
4,whale.jpg,living,old,27,old,2.44413900375,1,9,F,0.337348937988,4,,Children,,,1,
4,dust_pan.png,nonliving,old,28,old,0.839696884155,1,9,F,0.721585035324,4,,Children,,,1,
4,cougar.png,living,old,29,old,0.94008898735,1,9,F,0.738393068314,3,,Children,,,1,
4,playdoh.png,nonliving,old,31,new,2.19348597527,0,9,F,1.68800282478,2,,Children,,,,0
4,fork.png,nonliving,old,32,old,0.789613962173,1,9,F,1.07264685631,4,,Children,,,1,
4,gloves_winter.png,nonliving,old,33,old,0.990181922913,1,9,F,0.687902212143,3,,Children,,,1,
4,castle_sand.png,nonliving,old,35,old,1.08965086937,1,9,F,0.287354946136,4,,Children,,,1,
4,skirt.jpg,nonliving,old,36,old,0.72260093689,1,9,F,0.387364864349,4,,Children,,,1,
4,chain_rusty.png,nonliving,old,37,old,0.940284013748,1,9,F,0.487818956375,4,,Children,,,1,
4,concreteblock.png,nonliving,old,38,old,0.889946937561,1,9,F,0.370851039886,4,,Children,,,1,
4,hair_scrunchie.png,nonliving,old,39,old,0.739393949509,1,9,F,0.387408971786,4,,Children,,,1,
4,1bear_polarbear.png,living,old,40,old,0.80651307106,1,9,F,0.37077498436,4,,Children,,,1,
4,bench_park.png,nonliving,old,42,new,1.04055094719,0,9,F,0.487799882889,4,,Children,,,,0
4,gametable_airhockey.png,nonliving,old,43,new,1.27427101135,0,9,F,0.437705039978,4,,Children,,,,0
4,handheldMirror.jpg,nonliving,old,45,old,0.889876127243,1,9,F,0.537790060043,3,,Children,,,1,
4,doublebass.png,nonliving,old,46,new,0.722942113876,0,9,F,3.94410204887,3,,Children,,,,0
4,pencil.png,nonliving,old,47,old,1.17401909828,1,9,F,0.33722782135,4,,Children,,,1,
4,net_butterfly.jpg,nonliving,old,48,old,0.68928694725,1,9,F,1.18962407112,2,,Children,,,,
4,bumblebee.png,living,old,50,new,0.937148094177,0,9,F,1.02257299423,1,,Children,,,,0
4,cookiecutter_bell.png,nonliving,old,52,old,1.62526202202,1,9,F,1.1896879673,4,,Children,,,1,
4,shampoo.jpg,nonliving,old,54,old,1.12395691872,1,9,F,2.14228487015,4,,Children,,,1,
4,bin_recycling.png,nonliving,old,55,new,1.23797893524,0,9,F,0.7217669487,3,,Children,,,,0
4,turtle.png,living,old,56,old,1.64199900627,1,9,F,0.938938140869,4,,Children,,,1,
4,watercooler.png,nonliving,old,59,new,2.59172391891,0,9,F,0.12003993988,4,,Children,,,,0
4,inukshuk.png,nonliving,old,60,old,1.07375788689,1,9,F,0.337346076965,4,,Children,,,1,
4,perfume.png,nonliving,old,62,old,1.17401981354,1,9,F,0.387676000595,4,,Children,,,1,
4,pacifier.png,nonliving,old,63,old,1.37453103065,1,9,F,0.852284908295,4,,Children,,,1,
4,cup.jpg,nonliving,old,64,old,1.2575480938,1,9,F,0.537790060043,4,,Children,,,1,
4,wolf.png,living,old,65,old,0.836926937103,1,9,F,0.320666074753,4,,Children,,,1,
4,toy_alien.jpg,nonliving,old,66,old,0.889847993851,1,9,F,0.337844848633,4,,Children,,,1,
4,swan.png,living,old,67,old,0.839760065079,1,9,F,0.337244987488,4,,Children,,,1,
4,lollipop.png,nonliving,old,68,old,2.47754502296,1,9,F,0.437526941299,4,,Children,,,1,
4,laces.jpg,nonliving,old,70,old,1.54176902771,1,9,F,0.404142141342,4,,Children,,,1,
4,trophy_man.png,nonliving,old,71,new,2.96212410927,0,9,F,0.337105989456,3,,Children,,,,0
4,sphinx.png,nonliving,old,73,old,1.13787508011,1,9,F,0.183818101883,4,,Children,,,1,
4,ship_battle.png,nonliving,old,74,old,1.12381196022,1,9,F,0.337262868881,4,,Children,,,1,
4,stapler.png,nonliving,old,75,old,1.13723111153,1,9,F,0.370732069016,4,,Children,,,1,
4,oldBook.png,nonliving,old,76,new,1.99304103851,0,9,F,0.587943077087,4,,Children,,,,0
4,lynx.png,living,old,77,new,1.48868989944,0,9,F,0.370913982391,4,,Children,,,,0
4,coin.jpg,nonliving,old,80,old,1.12374591827,1,9,F,0.253705978394,4,,Children,,,1,
4,toy_jack-in-the-box.jpg,nonliving,old,81,old,0.823054075241,1,9,F,0.287113904953,4,,Children,,,1,
4,iguana.png,living,old,83,old,1.05704188347,1,9,F,0.437767982483,4,,Children,,,1,
4,barrel.png,nonliving,old,85,new,1.60856413841,0,9,F,0.387363195419,4,,Children,,,,0
4,stick_ice hockey.png,nonliving,old,86,old,0.840101003647,1,9,F,0.237311124802,4,,Children,,,1,
4,bolt.png,nonliving,old,87,old,0.689432144165,1,9,F,0.320548057556,4,,Children,,,1,
4,mask_black.png,nonliving,old,89,old,1.09052610397,1,9,F,0.284148931503,4,,Children,,,1,
4,pliers.png,nonliving,old,90,old,2.17698502541,1,9,F,0.838731050491,3,,Children,,,1,
4,microwave.png,nonliving,old,91,new,3.59437298775,0,9,F,0.270500898361,4,,Children,,,,0
4,calculator.png,nonliving,old,92,old,1.04028296471,1,9,F,0.337214946747,4,,Children,,,1,
4,thermometer.png,nonliving,old,94,new,2.59451818466,0,9,F,0.28710603714,3,,Children,,,,0
4,statue_head.png,nonliving,old,96,new,1.54161691666,0,9,F,0.384436130524,3,,Children,,,,0
4,table_side.jpg,nonliving,old,97,new,0.589395046234,0,9,F,0.320691823959,4,,Children,,,,0
4,dresser.png,nonliving,old,98,old,1.17427015305,1,9,F,0.153346061707,4,,Children,,,1,
4,lock_combination.jpg,nonliving,old,100,old,0.906717061996,1,9,F,0.320528030396,4,,Children,,,1,
4,television.png,nonliving,old,101,new,0.78968000412,0,9,F,2.37614917755,1,,Children,,,,0
4,shrimp.png,nonliving,old,102,old,2.42741703987,1,9,F,0.287033081055,4,,Children,,,1,
4,shirt_tshirt.png,nonliving,old,103,old,0.669841051102,1,9,F,0.170590162277,4,,Children,,,1,
4,pan_muffin.png,nonliving,old,104,new,1.02356290817,0,9,F,1.1394739151,1,,Children,,,,0
4,hot pad.jpg,nonliving,old,105,new,1.72265100479,0,9,F,0.320948839188,1,,Children,,,,0
4,necklace_pearl.png,nonliving,old,106,old,1.17399287224,1,9,F,0.23716211319,4,,Children,,,1,
4,fish_rockbass.png,living,old,107,old,1.09063005447,1,9,F,0.0363690853119,4,,Children,,,1,
4,mug.png,nonliving,old,108,old,1.85898017883,1,9,F,1.33999490738,4,,Children,,,1,
4,bucket_halloween.jpg,nonliving,old,109,old,2.04012298584,1,9,F,0.303886890411,4,,Children,,,1,
4,shelf_book.png,nonliving,old,110,new,0.99063205719,0,9,F,1.50411295891,3,,Children,,,,0
4,cat.png,living,old,111,old,1.17111110687,1,9,F,0.220445871353,4,,Children,,,1,
4,notebook_black.png,nonliving,old,112,new,1.74220085144,0,9,F,0.537915945053,4,,Children,,,,0
4,hose_garden.png,nonliving,old,113,new,1.38835096359,0,9,F,0.420675992966,4,,Children,,,,0
4,boxtruck.png,nonliving,old,114,old,0.823016166687,1,9,F,1.13947916031,3,,Children,,,1,
4,pajamas.png,nonliving,old,116,old,0.889985084534,1,9,F,0.303864955902,4,,Children,,,1,
4,macaroni.png,nonliving,old,117,old,0.672592163086,1,9,F,0.337285995483,4,,Children,,,1,
4,bottle_plasticwater.png,nonliving,old,119,old,1.34105396271,1,9,F,0.888916969299,3,,Children,,,1,
4,ring_diamond.png,nonliving,old,120,old,1.13770294189,1,9,F,0.119915008545,4,,Children,,,1,
4,cane.png,nonliving,old,121,old,1.39120793343,1,9,F,0.902516841888,1,,Children,,,,
4,motorcycle.png,nonliving,old,122,new,2.31058621407,0,9,F,0.387397050858,3,,Children,,,,0
4,horn_french.png,nonliving,old,123,old,1.6586689949,1,9,F,0.236969947815,4,,Children,,,1,
4,lionWalking.png,living,old,124,old,0.887209892273,1,9,F,0.320521116257,4,,Children,,,1,
4,egg_easter.jpg,nonliving,old,125,old,0.689384937286,1,9,F,0.304075956345,4,,Children,,,1,
4,fireextinguisher.jpg,nonliving,old,126,old,0.973478078842,1,9,F,1.52417492867,4,,Children,,,1,
4,chair_deck.png,nonliving,old,127,old,1.39124798775,1,9,F,0.287275075912,4,,Children,,,1,
4,drill.png,nonliving,old,128,new,1.45817399025,0,9,F,0.120357990265,3,,Children,,,,0
4,poles_ski.png,nonliving,old,129,old,1.54184293747,1,9,F,0.370707988739,3,,Children,,,1,
4,wateringcan.png,nonliving,old,130,old,1.59176778793,1,9,F,0.287407159805,4,,Children,,,1,
4,mannequin.jpg,nonliving,old,131,old,0.636330127716,1,9,F,0.32051897049,4,,Children,,,1,
4,ladder.png,nonliving,old,133,new,1.23789715767,0,9,F,0.421157836914,3,,Children,,,,0
4,birdhouse.png,nonliving,old,136,new,1.82571005821,0,9,F,0.38729596138,3,,Children,,,,0
4,bed.png,nonliving,old,137,old,1.27137899399,1,9,F,0.183897972107,4,,Children,,,1,
4,street sweeper.png,nonliving,old,138,new,1.17406702042,0,9,F,1.03932499886,4,,Children,,,,0
4,cake_cheese.png,nonliving,old,139,old,0.890244007111,1,9,F,0.337280988693,4,,Children,,,1,
4,lifejacket.png,nonliving,old,141,old,0.890240907669,1,9,F,0.33731508255,4,,Children,,,1,
4,bird_toucan.png,living,old,142,old,1.19080996513,1,9,F,0.320461988449,4,,Children,,,1,
4,dog_toy.png,nonliving,old,143,old,0.840420007706,1,9,F,0.287184000015,4,,Children,,,1,
4,bugle.png,nonliving,old,144,new,1.39134502411,0,9,F,0.721620082855,3,,Children,,,,0
4,spoons_measuring.jpg,nonliving,old,145,old,0.890028953552,1,9,F,0.136716127396,4,,Children,,,1,
4,rug.png,nonliving,old,146,old,1.04030203819,1,9,F,0.287405967712,4,,Children,,,1,
4,crayon_green.png,nonliving,old,147,old,0.73943901062,1,9,F,1.77480006218,1,,Children,,,,
4,pictureframe.png,nonliving,old,148,old,0.839915990829,1,9,F,0.788413047791,3,,Children,,,1,
4,qtip.png,nonliving,old,151,old,3.4438970089,1,9,F,0.120069026947,3,,Children,,,1,
4,paintcan.jpg,nonliving,old,152,new,2.69534111023,0,9,F,0.437592983246,4,,Children,,,,0
4,clam.png,living,old,154,old,0.923377990723,1,9,F,1.0225520134,4,,Children,,,1,
4,scooter.png,nonliving,old,156,new,1.55841183662,0,9,F,0.287101984024,1,,Children,,,,0
4,helicopter.jpg,nonliving,old,157,old,3.79481601715,1,9,F,0.371706962585,4,,Children,,,1,
4,boxingGloves.png,nonliving,old,158,old,1.02389287949,1,9,F,0.187070131302,4,,Children,,,1,
4,clip_paper.png,nonliving,old,159,old,0.790871143341,1,9,F,0.287194013596,4,,Children,,,1,
4,hoodieGray.jpg,nonliving,old,160,old,0.786719083786,1,9,F,0.270434856415,4,,Children,,,1,
4,smokingpipe.png,nonliving,old,163,old,0.923387050629,1,9,F,0.304157972336,4,,Children,,,1,
4,Baby-Bunny-Wallpaper-Free-Download.png,living,old,166,new,1.83952689171,0,9,F,0.33748793602,3,,Children,,,,0
4,camel.png,living,old,167,old,1.19092202187,1,9,F,0.120634078979,4,,Children,,,1,
4,brush_paint.png,nonliving,old,168,old,0.924682855606,1,9,F,0.337380886078,4,,Children,,,1,
4,rolling pin.jpg,nonliving,old,170,old,1.12511181831,1,9,F,0.153450965881,4,,Children,,,1,
4,bird_eagle 2.png,living,old,171,old,1.05480504036,1,9,F,0.0197861194611,4,,Children,,,1,
4,lobster.png,living,old,172,old,0.673271894455,1,9,F,0.888737916946,4,,Children,,,1,
4,fuzzydice.jpg,nonliving,old,173,old,0.839996814728,1,9,F,0.0364780426025,4,,Children,,,1,
4,basket_straw.png,nonliving,old,174,new,1.29112887383,0,9,F,0.237319946289,3,,Children,,,,0
4,ball_baseball.png,nonliving,old,175,new,1.35849690437,0,9,F,1.03941392899,3,,Children,,,,0
4,ghost.png,nonliving,old,176,old,0.719937086105,1,9,F,1.15612387657,4,,Children,,,1,
4,staircase.jpg,nonliving,old,177,old,1.02375102043,1,9,F,0.136846065521,4,,Children,,,1,
4,ball_8.png,nonliving,old,178,old,0.789892196655,1,9,F,0.183818101883,4,,Children,,,1,
4,stoveAntique.jpg,nonliving,old,179,new,0.873651027679,0,9,F,0.253903150558,4,,Children,,,,0
4,clock_digital.png,nonliving,old,181,old,0.854271888733,1,9,F,0.237010955811,4,,Children,,,1,
4,weights.png,nonliving,old,182,old,1.62528300285,1,9,F,1.12273907661,4,,Children,,,1,
4,megaphone.png,nonliving,old,183,old,3.63106298447,1,9,F,0.68824505806,4,,Children,,,1,
4,seahorse.png,living,old,186,old,0.924164056778,1,9,F,0.136911153793,4,,Children,,,1,
4,whisk_electric.jpg,nonliving,old,187,old,1.07399296761,1,9,F,0.18682384491,4,,Children,,,1,
4,plunger.png,nonliving,old,188,new,1.97647619247,0,9,F,0.150502920151,4,,Children,,,,0
4,mask_hockeygoalie.png,nonliving,old,189,old,1.30805301666,1,9,F,0.384295940399,4,,Children,,,1,
4,tiara.png,nonliving,old,191,old,0.890120983124,1,9,F,0.136902809143,4,,Children,,,1,
4,playground.png,nonliving,old,192,new,1.7762260437,0,9,F,0.387655973434,3,,Children,,,,0
4,spiderweb.png,nonliving,old,193,old,1.19083595276,1,9,F,0.237183094025,4,,Children,,,1,
4,hairband.png,nonliving,old,194,old,0.987334012985,1,9,F,0.387699842453,3,,Children,,,1,
4,teabag.jpg,nonliving,old,195,old,2.71226978302,1,9,F,1.08940196037,4,,Children,,,1,
4,guitar_electric.png,nonliving,old,197,new,1.39124488831,0,9,F,0.771857976913,4,,Children,,,,0
4,sandwich_egg.png,nonliving,old,198,old,0.94002699852,1,9,F,0.303920984268,4,,Children,,,1,
4,hat_tuque.png,nonliving,old,199,old,0.605836868286,1,9,F,0.387387990952,4,,Children,,,1,
4,figurine_ballerina.jpg,nonliving,old,200,old,1.0708220005,1,9,F,0.220325946808,4,,Children,,,1,
4,chips.png,nonliving,old,201,old,1.09045505524,1,9,F,0.337298870087,4,,Children,,,1,
4,toyStroller.jpg,nonliving,old,202,new,2.1571688652,0,9,F,0.671414852142,3,,Children,,,,0
4,pretzel.png,nonliving,old,203,old,0.739533185959,1,9,F,0.270401954651,4,,Children,,,1,
4,wreath.png,nonliving,old,204,new,0.923578023911,0,9,F,0.584973096848,4,,Children,,,,0
4,bathtub.png,nonliving,old,205,new,1.02382302284,0,9,F,0.387512207031,4,,Children,,,,0
4,antlerheadband.png,nonliving,old,206,old,0.656096935272,1,9,F,0.387516975403,4,,Children,,,1,
4,cautionSignFrench.png,nonliving,old,208,old,0.973433971405,1,9,F,0.303838014603,4,,Children,,,1,
4,bean bag chair.png,nonliving,old,209,old,0.78965306282,1,9,F,0.334203958511,4,,Children,,,1,
4,watergun.png,nonliving,old,210,old,1.04034209251,1,9,F,0.303948163986,4,,Children,,,1,
4,paper towel.jpg,nonliving,old,211,new,1.02406716347,0,9,F,0.287214994431,4,,Children,,,,0
4,yarn_ball.png,nonliving,old,212,old,1.37471485138,1,9,F,0.370783090591,4,,Children,,,1,
4,drum_set.png,nonliving,old,213,new,2.07625508308,0,9,F,0.436703920364,4,,Children,,,,0
4,lizard.png,living,old,214,new,1.48878097534,0,9,F,0.320666074753,4,,Children,,,,0
4,kangaroo.png,living,old,215,old,1.67563986778,1,9,F,0.872189998627,3,,Children,,,1,
4,slide_children.png,nonliving,old,216,new,2.04298615456,0,9,F,0.333945035934,4,,Children,,,,0
4,tire_car.png,nonliving,old,217,old,1.10753202438,1,9,F,0.18701004982,4,,Children,,,1,
4,coffeepot.png,nonliving,old,219,new,1.22416496277,0,9,F,0.0865650177002,4,,Children,,,,0
4,grasshopper.png,living,old,220,old,1.39142107964,1,9,F,0.334272861481,4,,Children,,,1,
4,englishmuffin.png,nonliving,old,221,old,1.02362895012,1,9,F,0.270406007767,4,,Children,,,1,
4,teapot.png,nonliving,old,222,new,2.26051712036,0,9,F,0.534785032272,3,,Children,,,,0
4,hammer.png,nonliving,old,223,new,3.61405897141,0,9,F,0.638032913208,4,,Children,,,,0
4,fryingpan.png,nonliving,old,224,old,1.02351498604,1,9,F,0.237030982971,4,,Children,,,1,
4,water well.png,nonliving,old,225,old,0.940201997757,1,9,F,0.37136220932,4,,Children,,,1,
4,bells_christmas.png,nonliving,old,226,old,3.53087878227,1,9,F,0.287184000015,4,,Children,,,1,
4,cloud.png,nonliving,old,227,old,3.96504306793,1,9,F,0.0533030033112,4,,Children,,,1,
4,globe.png,nonliving,old,228,old,1.09052491188,1,9,F,0.019809961319,4,,Children,,,1,
4,paddle ball.jpg,nonliving,old,229,old,1.17315912247,1,9,F,0.133666038513,4,,Children,,,1,
4,soap.png,nonliving,old,230,old,1.80906796455,1,9,F,0.136726140976,4,,Children,,,1,
4,pencilsharpener.png,nonliving,old,231,old,1.09060692787,1,9,F,0.136708021164,4,,Children,,,1,
4,bowling pin.png,nonliving,old,232,old,0.789599180222,1,9,F,0.23694396019,4,,Children,,,1,
4,wheel barrow.png,nonliving,old,233,new,1.32465100288,0,9,F,0.93877696991,3,,Children,,,,0
4,umbrella.png,nonliving,old,235,old,1.04030418396,1,9,F,0.103491067886,4,,Children,,,1,
4,shears_garden.jpg,nonliving,old,236,new,1.1072781086,0,9,F,0.136765956879,3,,Children,,,,0
4,bowl_cereal.png,nonliving,old,237,old,3.16262507439,1,9,F,0.136701107025,4,,Children,,,1,
4,goldnugget.png,nonliving,old,238,old,0.873054981232,1,9,F,0.0865278244019,4,,Children,,,1,
4,earrings_dangling.jpg,nonliving,old,239,old,0.806221961975,1,9,F,0.755203962326,3,,Children,,,1,
4,dog_food.png,nonliving,old,240,new,1.0069770813,0,9,F,0.638062953949,3,,Children,,,,0
4,lawnmower.png,nonliving,old,242,old,1.14055800438,1,9,F,0.287042856216,4,,Children,,,1,
4,bandage.jpg,nonliving,old,244,old,0.987291812897,1,9,F,0.270568847656,4,,Children,,,1,
4,spotlight.png,nonliving,old,245,new,1.59187412262,0,9,F,0.183889865875,3,,Children,,,,0
4,rollerblade.png,nonliving,old,246,old,0.956842184067,1,9,F,0.0532121658325,4,,Children,,,1,
4,whistle.png,nonliving,old,247,new,2.21018910408,0,9,F,0.337000846863,3,,Children,,,,0
4,lightbulb.png,nonliving,old,248,old,3.56394386292,1,9,F,0.638016939163,3,,Children,,,1,
4,giftbow01.png,nonliving,old,249,old,0.739535808563,1,9,F,0.284155130386,4,,Children,,,1,
4,knife_butter.png,nonliving,old,250,old,0.656054019928,1,9,F,0.337332010269,4,,Children,,,1,
4,puzzlepiece.png,nonliving,old,251,old,0.923326969147,1,9,F,0.387188911438,4,,Children,,,1,
4,bread_unleavened.png,nonliving,old,252,old,1.35837888718,1,9,F,0.237241983414,4,,Children,,,1,
4,plain_rice.jpg,nonliving,old,253,old,1.29093885422,1,9,F,0.387576818466,4,,Children,,,1,
4,sundae_banana.png,nonliving,old,254,old,0.940360784531,1,9,F,0.334223985672,4,,Children,,,1,
4,shoe_sneaker.png,nonliving,old,255,new,1.45824718475,0,9,F,0.48779296875,4,,Children,,,,0
4,donutFloaty.png,nonliving,old,256,new,3.61419415474,0,9,F,0.58821606636,3,,Children,,,,0
4,partyDress.png,nonliving,old,257,new,1.49145913124,0,9,F,0.337412118912,4,,Children,,,,0
4,candle.png,nonliving,old,258,old,1.0240688324,1,9,F,0.303881883621,4,,Children,,,1,
4,babybottle.jpg,nonliving,old,261,old,0.923228025436,1,9,F,0.300818920135,4,,Children,,,1,
4,starfish.png,living,old,263,old,1.18755817413,1,9,F,0.420850038528,4,,Children,,,1,
4,paddle_bread.png,nonliving,old,264,new,1.08747386932,0,9,F,0.220581054688,4,,Children,,,,0
4,kite.png,nonliving,old,265,new,1.14072918892,0,9,F,0.434468984604,3,,Children,,,,0
4,snow shoes.png,nonliving,old,266,old,1.12377500534,1,9,F,0.387384176254,4,,Children,,,1,
4,bat_baseball.png,nonliving,old,267,new,1.1410548687,0,9,F,0.688023090363,3,,Children,,,,0
4,wirebeadmaze.png,nonliving,old,268,old,1.50839304924,1,9,F,0.938966989517,3,,Children,,,1,
4,sled.png,nonliving,old,270,new,2.21013402939,0,9,F,0.387355089188,4,,Children,,,,0
4,swing set.jpg,nonliving,old,272,old,1.00695300102,1,9,F,0.387391090393,4,,Children,,,1,
4,compass.png,nonliving,old,274,old,0.870252132416,1,9,F,0.270488977432,4,,Children,,,1,
4,worldmap.png,nonliving,old,275,old,1.22430086136,1,9,F,0.203608036041,4,,Children,,,1,
4,chalkboarderaser.png,nonliving,old,276,old,0.772990942001,1,9,F,0.33732008934,4,,Children,,,1,
4,chick.png,living,old,277,old,0.873352050781,1,9,F,0.0364499092102,4,,Children,,,1,
4,mitten.png,nonliving,old,279,new,1.27415895462,0,9,F,0.0364739894867,4,,Children,,,,0
4,binoculars.png,nonliving,old,280,old,1.3078558445,1,9,F,0.237293958664,3,,Children,,,1,
4,number_3.png,nonliving,old,281,old,1.25764107704,1,9,F,0.0867009162903,4,,Children,,,1,
4,glueGun.jpg,nonliving,old,283,old,0.906645774841,1,9,F,0.237072944641,4,,Children,,,1,
4,paddle.png,nonliving,old,284,old,3.32982397079,1,9,F,0.203603982925,4,,Children,,,1,
4,bagel.png,nonliving,old,285,old,0.906527996063,1,9,F,0.287089109421,4,,Children,,,1,
4,dryingmachine02.png,nonliving,old,286,new,0.873269081116,0,9,F,0.133716821671,4,,Children,,,,0
4,toothpaste.png,nonliving,old,287,new,1.12379693985,0,9,F,0.036464214325,4,,Children,,,,0
4,gun_nerf.jpg,nonliving,old,291,old,0.872961997986,1,9,F,2.55994391441,4,,Children,,,1,
4,macaque.png,living,old,292,old,0.839762926102,1,9,F,0.237061023712,4,,Children,,,1,
4,vaseDecorativeOriental.jpg,nonliving,old,294,new,1.30784106255,0,9,F,0.437654972076,4,,Children,,,,0
4,ice cubes.png,nonliving,old,295,old,2.37732100487,1,9,F,0.284192800522,4,,Children,,,1,
4,toy_truck.jpg,nonliving,old,296,new,1.27473807335,0,9,F,0.534760951996,4,,Children,,,,0
4,bib.png,nonliving,old,298,old,0.85653090477,1,9,F,0.537786960602,3,,Children,,,1,
4,candycane.jpg,nonliving,old,299,old,2.29369497299,1,9,F,0.384344100952,4,,Children,,,1,
4,flute_wooden.png,nonliving,old,300,old,2.10992217064,1,9,F,0.287306070328,4,,Children,,,1,
4,magnifyingglass.png,nonliving,old,303,new,1.29108095169,0,9,F,0.0364360809326,3,,Children,,,,0
4,ribbon.jpg,nonliving,old,306,old,4.29926085472,1,9,F,0.337494134903,4,,Children,,,1,
4,pirateflag.jpg,nonliving,old,307,new,1.15658593178,0,9,F,0.470958948135,4,,Children,,,,0
4,pen.png,nonliving,old,308,old,1.37468886375,1,9,F,0.337279081345,4,,Children,,,1,
4,mouse.jpg,living,old,310,new,3.43022608757,0,9,F,0.587863922119,3,,Children,,,,0
4,escalator.png,nonliving,old,311,new,1.39128398895,0,9,F,0.170165061951,4,,Children,,,,0
4,pants_firefighter.jpg,nonliving,old,313,new,0.87319111824,0,9,F,0.58800983429,4,,Children,,,,0
4,headphones.png,nonliving,old,315,old,0.92341709137,1,9,F,0.6183989048,4,,Children,,,1,
4,balloon.jpg,nonliving,old,316,old,3.14617800713,1,9,F,0.420783996582,4,,Children,,,1,
4,crab.png,living,old,317,old,0.870025873184,1,9,F,0.38766002655,4,,Children,,,1,
4,rope_skipping.png,nonliving,old,318,old,0.856772899628,1,9,F,0.337385892868,4,,Children,,,1,
4,sink.png,nonliving,old,319,old,0.923290014267,1,9,F,0.28714799881,4,,Children,,,1,
4,razor.png,nonliving,old,321,new,10.5663909912,0,9,F,0.638175010681,4,,Children,,,,0
4,loofah.png,nonliving,old,322,old,1.30753803253,1,9,F,0.487629175186,4,,Children,,,1,
4,quartz.png,nonliving,old,323,old,0.839848041534,1,9,F,0.538069009781,4,,Children,,,1,
4,carton_eggs.png,nonliving,old,324,old,1.75902795792,1,9,F,0.437597990036,4,,Children,,,1,
4,pants.png,nonliving,old,326,old,1.34116816521,1,9,F,0.320318222046,4,,Children,,,1,
4,towel.png,nonliving,old,327,old,1.35490012169,1,9,F,0.621438980103,4,,Children,,,1,
4,watch.png,nonliving,old,328,new,2.04308009148,0,9,F,0.287172079086,4,,Children,,,,0
4,pylonTraffic.jpg,nonliving,old,329,old,1.1740231514,1,9,F,0.320494890213,4,,Children,,,1,
4,floortile.png,nonliving,old,330,new,1.12401604652,0,9,F,0.404154062271,3,,Children,,,,0
4,candy.png,nonliving,old,331,old,1.27145195007,1,9,F,0.320598125458,4,,Children,,,1,
4,handbag.png,nonliving,old,332,old,0.90661406517,1,9,F,0.35445690155,4,,Children,,,1,
4,piano_keyboard.png,nonliving,old,333,old,2.91221499443,1,9,F,0.57150387764,3,,Children,,,1,
4,babysocks.png,nonliving,old,334,old,1.42484211922,1,9,F,0.387532949448,4,,Children,,,1,
4,hairdryer.png,nonliving,old,335,old,3.66433310509,1,9,F,1.33992886543,2,,Children,,,,
4,croissant.png,nonliving,old,336,old,0.873224020004,1,9,F,0.337301969528,4,,Children,,,1,
4,potFlowerClay.png,nonliving,old,337,new,1.47503805161,0,9,F,0.052924156189,4,,Children,,,,0
4,soap_bottle.png,nonliving,old,338,old,1.05730485916,1,9,F,0.186967134476,4,,Children,,,1,
4,candydispenser.png,nonliving,old,339,old,0.772910118103,1,9,F,0.133801221848,4,,Children,,,1,
4,diving_board.jpg,nonliving,old,340,old,0.856612205505,1,9,F,0.287605047226,4,,Children,,,1,
4,cheeseGouda.png,nonliving,old,342,old,1.02372097969,1,9,F,0.17013502121,4,,Children,,,1,
4,arch.png,nonliving,old,343,old,2.77836203575,1,9,F,0.387224912643,3,,Children,,,1,
4,package.png,nonliving,old,344,old,0.903748035431,1,9,F,0.153506994247,4,,Children,,,1,
4,cake_wedding.png,nonliving,old,345,old,0.772941827774,1,9,F,0.705004930496,4,,Children,,,1,
4,button_plastic.png,nonliving,old,346,old,0.956918954849,1,9,F,0.337352991104,4,,Children,,,1,
4,cashregister.png,nonliving,old,347,old,1.05699205399,1,9,F,0.337348937988,4,,Children,,,1,
4,doghouse.png,nonliving,old,348,old,8.19324088097,1,9,F,2.17559695244,1,,Children,,,,
4,napkin_ring.png,nonliving,old,349,old,1.02372193336,1,9,F,0.487713098526,4,,Children,,,1,
4,beaver.jpg,living,old,350,old,6.08749699593,1,9,F,1.54118299484,3,,Children,,,1,
4,boat.png,nonliving,old,351,new,2.96230792999,0,9,F,0.387476921082,3,,Children,,,,0
4,drinkingfountain.png,nonliving,old,352,new,1.63913083076,0,9,F,0.872210979462,4,,Children,,,,0
4,snow globe.png,nonliving,old,353,old,1.15418314934,1,9,F,0.822016954422,4,,Children,,,1,
4,remotecontrol.png,nonliving,old,354,old,0.770005941391,1,9,F,0.520514011383,4,,Children,,,1,
4,costume_wizard.jpg,nonliving,old,355,old,3.53037500381,1,9,F,0.685050964355,4,,Children,,,1,
4,walkitalkie.png,nonliving,old,356,new,1.15726685524,0,9,F,0.401070833206,4,,Children,,,,0
4,glasses_sun.png,nonliving,old,358,old,1.02060008049,1,9,F,0.220205783844,4,,Children,,,1,
4,radioclock.jpg,nonliving,old,359,new,4.37979793549,0,9,F,0.972269058228,4,,Children,,,,0
4,waterfountain.png,nonliving,old,360,new,1.22425103188,0,9,F,0.354006052017,3,,Children,,,,0
4,giftbox.jpg,nonliving,old,361,old,2.42724204063,1,9,F,0.337168931961,4,,Children,,,1,
4,tissuebox.png,nonliving,old,362,new,9.12919306755,0,9,F,0.384261846542,4,,Children,,,,0
4,rope.png,nonliving,old,365,new,2.26027798653,0,9,F,0.738511800766,4,,Children,,,,0
4,backpack.png,nonliving,old,366,old,1.92607617378,1,9,F,0.320488929749,3,,Children,,,1,
4,crutches.jpg,nonliving,old,368,new,1.87598896027,0,9,F,0.638837099075,3,,Children,,,,0
4,letter_mail.png,nonliving,old,370,new,3.74825692177,0,9,F,1.5233027935,1,,Children,,,,0
4,dog_leash.jpg,nonliving,old,371,old,0.973605871201,1,9,F,2.67706298828,4,,Children,,,1,
4,hanger.png,nonliving,old,373,old,0.722850084305,1,9,F,0.0364019870758,4,,Children,,,1,
4,chest_toys.png,nonliving,old,374,old,1.07385492325,1,9,F,0.587783098221,4,,Children,,,1,
4,peppermill.png,nonliving,old,376,new,1.94275283813,0,9,F,0.286988019943,3,,Children,,,,0
4,socks_winter.png,nonliving,old,377,old,1.20748806,1,9,F,0.287364959717,4,,Children,,,1,
4,pin_clothes.png,nonliving,old,378,old,0.990112066269,1,9,F,0.5379550457,4,,Children,,,1,
4,match.png,nonliving,old,379,old,4.43300580978,1,9,F,0.437871932983,4,,Children,,,1,
4,bowtie.jpg,nonliving,old,380,old,1.1376760006,1,9,F,0.320572853088,4,,Children,,,1,
4,portapotty.png,nonliving,old,381,new,4.33273887634,0,9,F,0.538189172745,3,,Children,,,,0
4,domino.png,nonliving,old,382,new,1.70898604393,0,9,F,0.40113401413,4,,Children,,,,0
4,pillow.png,nonliving,old,383,old,5.76987791061,1,9,F,1.44041895866,3,,Children,,,1,
4,thumbtack.png,nonliving,old,384,old,2.12691402435,1,9,F,0.387711048126,4,,Children,,,1,
4,dreamcatcher.png,nonliving,old,386,old,13.0063309669,1,9,F,0.0865089893341,4,,Children,,,1,
4,checkers_board.jpg,nonliving,old,388,old,0.940062046051,1,9,F,0.18661904335,4,,Children,,,1,
4,mop.png,nonliving,old,390,new,1.77587199211,0,9,F,0.571369886398,4,,Children,,,,0
4,belt.png,nonliving,old,391,new,1.47513198853,0,9,F,0.0531568527222,3,,Children,,,,0
4,dolphin.png,living,old,392,old,1.00710105896,1,9,F,0.083643913269,4,,Children,,,1,
4,tickets.png,nonliving,old,394,old,5.01772809029,1,9,F,0.186792850494,4,,Children,,,1,
4,garbageBin.jpg,nonliving,old,395,old,6.89008498192,1,9,F,0.688365936279,4,,Children,,,1,
4,firstAidKit.png,nonliving,old,396,old,0.973474979401,1,9,F,0.537968158722,4,,Children,,,1,
4,wheel_steering.jpg,nonliving,old,397,old,1.32450580597,1,9,F,0.438099145889,4,,Children,,,1,
4,guacamole.png,nonliving,old,398,old,1.52503013611,1,9,F,0.487681865692,4,,Children,,,1,
4,crown.png,nonliving,old,399,old,1.45782279968,1,9,F,0.136687994003,4,,Children,,,1,
4,bottle_spray.jpg,nonliving,old,400,new,1.68930506706,0,9,F,0.170435905457,3,,Children,,,,0
4,flashlight.png,nonliving,old,402,new,1.04040002823,0,9,F,0.237100124359,4,,Children,,,,0
4,toys_lego.png,nonliving,old,403,new,2.47762608528,0,9,F,1.64082717896,3,,Children,,,,0
4,basketballhoop.png,nonliving,old,404,old,1.9594540596,1,9,F,0.0867218971252,4,,Children,,,1,
4,tomato sauce.jpg,nonliving,old,405,new,3.2798230648,0,9,F,0.370480775833,3,,Children,,,,0
4,feather.png,nonliving,old,406,old,1.37458395958,1,9,F,0.337226867676,4,,Children,,,1,
4,sword.png,nonliving,old,408,new,8.44389605522,0,9,F,0.337254047394,4,,Children,,,,0
4,telescope.png,nonliving,old,409,new,2.57773900032,0,9,F,0.237061977386,3,,Children,,,,0
4,tray_icecube.png,nonliving,old,410,new,1.47517704964,0,9,F,0.236977100372,4,,Children,,,,0
4,dress_blue.jpg,nonliving,old,411,old,0.92330121994,1,9,F,0.0865190029144,4,,Children,,,1,
4,card_queenspade.png,nonliving,old,412,old,1.19088983536,1,9,F,0.186758041382,4,,Children,,,1,
4,candelabra.jpg,nonliving,old,413,old,0.973525047302,1,9,F,0.183614969254,4,,Children,,,1,
4,bag_garbage.png,nonliving,old,414,old,1.92604398727,1,9,F,0.387619018555,4,,Children,,,1,
4,sign_washroom.png,nonliving,old,416,old,3.04586696625,1,9,F,0.23696398735,3,,Children,,,1,
4,champagne.jpg,nonliving,old,417,old,0.823018789291,1,9,F,0.203555107117,4,,Children,,,1,
4,gingerbreadman.jpg,nonliving,old,418,old,0.739203929901,1,9,F,0.22017288208,4,,Children,,,1,
4,truck_tanker.png,nonliving,old,419,old,1.37481999397,1,9,F,0.233986854553,4,,Children,,,1,
4,seal_animal.png,living,old,422,new,1.17340111732,0,9,F,0.183859109879,4,,Children,,,,0
4,skates.png,nonliving,old,423,new,1.52499508858,0,9,F,0.13682103157,4,,Children,,,,0
4,buffalo.png,living,old,424,old,8.67473006248,1,9,F,0.488264083862,3,,Children,,,1,
5,mannequin.jpg,nonliving,old,1,new,1.92619109154,0,10,M,3.62979602814,2,,Children,,,,0
5,umbrella.png,nonliving,old,2,new,4.78383398056,0,10,M,0.888775110245,1,,Children,,,,0
5,ostrich.jpg,living,old,3,old,1.44138407707,1,10,M,0.320650100708,4,,Children,,,1,
5,soap_bottle.png,nonliving,old,4,old,1.04021787643,1,10,M,0.387494087219,4,,Children,,,1,
5,mask_black.png,nonliving,old,5,old,0.940025091171,1,10,M,0.387628078461,4,,Children,,,1,
5,stick_ice hockey.png,nonliving,old,6,old,2.67802214622,1,10,M,0.387115001678,1,,Children,,,,
5,cane.png,nonliving,old,7,old,1.29067802429,1,10,M,1.02233815193,3,,Children,,,1,
5,smokingpipe.png,nonliving,old,8,old,1.19089698792,1,10,M,0.387646913528,3,,Children,,,1,
5,candy.png,nonliving,old,9,old,0.990137815475,1,10,M,0.287081003189,4,,Children,,,1,
5,boxingGloves.png,nonliving,old,10,old,0.973828077316,1,10,M,0.387454986572,4,,Children,,,1,
5,owl.png,living,old,11,old,0.990203857422,1,10,M,0.437508106232,4,,Children,,,1,
5,giftbox.jpg,nonliving,old,12,new,3.0794980526,0,10,M,2.34269189835,1,,Children,,,,0
5,bowtie.jpg,nonliving,old,13,old,1.92641997337,1,10,M,0.437575817108,1,,Children,,,,
5,fireextinguisher.jpg,nonliving,old,14,old,1.04055500031,1,10,M,0.387330055237,3,,Children,,,1,
5,clothespin.jpg,nonliving,old,16,new,2.22692084312,0,10,M,1.43714404106,3,,Children,,,,0
5,flamingo.png,living,old,17,new,1.17400598526,0,10,M,1.89177799225,1,,Children,,,,0
5,paper towel.jpg,nonliving,old,18,old,1.87310099602,1,10,M,1.07261300087,4,,Children,,,1,
5,dragonfly.png,living,old,19,old,1.94267416,1,10,M,0.387784004211,4,,Children,,,1,
5,fryingpan.png,nonliving,old,21,old,2.72821187973,1,10,M,1.44026899338,4,,Children,,,1,
5,hoodieGray.jpg,nonliving,old,22,old,1.05689787865,1,10,M,0.417730093002,4,,Children,,,1,
5,towel.png,nonliving,old,23,old,2.21020698547,1,10,M,0.337244033813,2,,Children,,,,
5,shampoo.jpg,nonliving,old,24,old,1.3913090229,1,10,M,0.43458199501,2,,Children,,,,
5,watergun.png,nonliving,old,25,old,1.27464604378,1,10,M,0.304088115692,4,,Children,,,1,
5,tap_bathroom.jpg,nonliving,old,26,old,0.873559951782,1,10,M,0.270547866821,4,,Children,,,1,
5,flashlight.png,nonliving,old,27,old,0.87321805954,1,10,M,0.303867101669,4,,Children,,,1,
5,boot_rain.png,nonliving,old,28,new,1.80917310715,0,10,M,0.487968921661,2,,Children,,,,0
5,spiderweb.png,nonliving,old,29,old,1.13768815994,1,10,M,0.136589050293,3,,Children,,,1,
5,walkitalkie.png,nonliving,old,30,old,0.789607048035,1,10,M,0.420696973801,2,,Children,,,,
5,dryingmachine02.png,nonliving,old,31,old,1.0571231842,1,10,M,0.220187902451,4,,Children,,,1,
5,skates.png,nonliving,old,32,old,1.07378292084,1,10,M,0.638094902039,1,,Children,,,,
5,sheep.jpg,living,old,33,new,1.24084210396,0,10,M,0.420845031738,4,,Children,,,,0
5,firstAidKit.png,nonliving,old,34,old,3.78115701675,1,10,M,0.337241172791,4,,Children,,,1,
5,egg_easter.jpg,nonliving,old,35,new,1.85628294945,0,10,M,0.0531988143921,3,,Children,,,,0
5,hanger.png,nonliving,old,36,new,1.45824384689,0,10,M,0.571224212646,1,,Children,,,,0
5,megaphone.png,nonliving,old,37,new,2.14033579826,0,10,M,1.32346391678,2,,Children,,,,0
5,paddle ball.jpg,nonliving,old,38,old,1.12383913994,1,10,M,0.404119968414,4,,Children,,,1,
5,swing set.jpg,nonliving,old,39,old,0.769701004028,1,10,M,0.270431995392,4,,Children,,,1,
5,goat.png,living,old,40,old,1.20744204521,1,10,M,0.220375061035,4,,Children,,,1,
5,rolling pin.jpg,nonliving,old,45,old,1.04034304619,1,10,M,0.186909198761,4,,Children,,,1,
5,donutFloaty.png,nonliving,old,47,old,1.9260559082,1,10,M,0.337391138077,4,,Children,,,1,
5,butterfly.png,living,old,48,new,2.47752809525,0,10,M,0.638208866119,1,,Children,,,,0
5,staircase.jpg,nonliving,old,49,new,1.57508111,0,10,M,0.270571231842,2,,Children,,,,0
5,archery.jpg,nonliving,old,51,old,1.22395682335,1,10,M,0.237087965012,4,,Children,,,1,
5,vaseDecorativeOriental.jpg,nonliving,old,52,old,1.07382488251,1,10,M,0.487795114517,3,,Children,,,1,
5,clock_digital.png,nonliving,old,53,old,0.953848838806,1,10,M,0.170114994049,4,,Children,,,1,
5,bean bag chair.png,nonliving,old,55,old,1.12385606766,1,10,M,0.236950874329,4,,Children,,,1,
5,thermometer.png,nonliving,old,56,old,1.03732705116,1,10,M,0.270422935486,4,,Children,,,1,
5,sphinx.png,nonliving,old,57,old,0.706065893173,1,10,M,0.170134782791,4,,Children,,,1,
5,gloves_winter.png,nonliving,old,58,old,0.990257978439,1,10,M,0.638154029846,2,,Children,,,,
5,1bird_canadiangoose.jpg,living,old,59,old,1.67531204224,1,10,M,0.186909198761,4,,Children,,,1,
5,inukshuk.png,nonliving,old,61,old,1.15802598,1,10,M,0.15022110939,4,,Children,,,1,
5,feather.png,nonliving,old,62,old,0.823004007339,1,10,M,0.287146091461,4,,Children,,,1,
5,globe.png,nonliving,old,63,old,0.689357995987,1,10,M,0.287279844284,4,,Children,,,1,
5,pants_firefighter.jpg,nonliving,old,64,old,0.772804021835,1,10,M,0.237020969391,4,,Children,,,1,
5,playground.png,nonliving,old,65,new,2.5110411644,0,10,M,0.671452045441,2,,Children,,,,0
5,ball_8.png,nonliving,old,66,old,1.07366609573,1,10,M,0.187206029892,4,,Children,,,1,
5,champagne.jpg,nonliving,old,67,old,2.64474797249,1,10,M,0.1372590065,2,,Children,,,,
5,wirebeadmaze.png,nonliving,old,68,old,1.17402482033,1,10,M,0.337297916412,2,,Children,,,,
5,ring_diamond.png,nonliving,old,69,old,0.923585891724,1,10,M,0.186751127243,4,,Children,,,1,
5,bucket_halloween.jpg,nonliving,old,70,old,1.82274484634,1,10,M,0.0197451114655,4,,Children,,,1,
5,whistle.png,nonliving,old,71,old,0.72262096405,1,10,M,0.28712105751,4,,Children,,,1,
5,tire_car.png,nonliving,old,73,new,1.5249941349,0,10,M,0.537646055222,2,,Children,,,,0
5,shoe_sneaker.png,nonliving,old,74,old,1.39124488831,1,10,M,0.233968019485,4,,Children,,,1,
5,candle.png,nonliving,old,77,old,1.24090003967,1,10,M,0.303931951523,4,,Children,,,1,
5,whisk_electric.jpg,nonliving,old,78,old,1.08748912811,1,10,M,0.270473003387,4,,Children,,,1,
5,motorcycle.png,nonliving,old,80,old,1.22329998016,1,10,M,0.237013101578,4,,Children,,,1,
5,kite.png,nonliving,old,82,old,1.14102196693,1,10,M,0.186910867691,4,,Children,,,1,
5,fish_swordfish.png,living,old,84,old,1.59178090096,1,10,M,0.922101020813,2,,Children,,,,
5,fork.png,nonliving,old,85,old,1.92736506462,1,10,M,0.0863661766052,4,,Children,,,1,
5,garbageBin.jpg,nonliving,old,86,old,1.00383806229,1,10,M,0.321053981781,4,,Children,,,1,
5,stroller.png,nonliving,old,88,old,1.52492594719,1,10,M,0.387353181839,4,,Children,,,1,
5,plain_rice.jpg,nonliving,old,89,old,0.739615917206,1,10,M,0.287065982819,4,,Children,,,1,
5,ice cubes.png,nonliving,old,90,old,0.722735881805,1,10,M,0.487729072571,4,,Children,,,1,
5,boat.png,nonliving,old,91,old,0.789506912231,1,10,M,0.337318181992,4,,Children,,,1,
5,earrings_dangling.jpg,nonliving,old,92,old,0.589161157608,1,10,M,0.270385980606,4,,Children,,,1,
5,bagel.png,nonliving,old,93,old,0.807454109192,1,10,M,0.370656013489,4,,Children,,,1,
5,bathtub.png,nonliving,old,94,old,0.722706079483,1,10,M,0.23708486557,4,,Children,,,1,
5,birdhouse.png,nonliving,old,95,old,0.806426048279,1,10,M,0.13675403595,4,,Children,,,1,
5,spoons_measuring.jpg,nonliving,old,96,old,0.639141082764,1,10,M,0.287061929703,4,,Children,,,1,
5,panda.jpg,living,old,97,old,1.17311906815,1,10,M,0.0866560935974,4,,Children,,,1,
5,hair_scrunchie.png,nonliving,old,98,new,2.17670297623,0,10,M,0.337390184402,2,,Children,,,,0
5,toy_jack-in-the-box.jpg,nonliving,old,100,old,1.44142794609,1,10,M,0.136720180511,4,,Children,,,1,
5,guitar_electric.png,nonliving,old,101,old,0.672811031342,1,10,M,0.136657953262,4,,Children,,,1,
5,sign_washroom.png,nonliving,old,102,old,2.92885494232,1,10,M,0.186914920807,1,,Children,,,,
5,bread_unleavened.png,nonliving,old,104,new,4.53315091133,0,10,M,0.286993980408,3,,Children,,,,0
5,scooter.png,nonliving,old,105,old,1.07398414612,1,10,M,0.153515100479,4,,Children,,,1,
5,brush_paint.png,nonliving,old,107,old,0.990266084671,1,10,M,0.284060001373,4,,Children,,,1,
5,boxtruck.png,nonliving,old,108,old,1.13766288757,1,10,M,0.320626020432,3,,Children,,,1,
5,spotlight.png,nonliving,old,109,old,0.990443944931,1,10,M,0.186879873276,4,,Children,,,1,
5,chipmunk.jpg,living,old,110,old,1.32543587685,1,10,M,0.0364720821381,4,,Children,,,1,
5,ghost.png,nonliving,old,111,old,0.873515129089,1,10,M,0.287173986435,4,,Children,,,1,
5,laces.jpg,nonliving,old,112,old,0.839838027954,1,10,M,0.0864980220795,4,,Children,,,1,
5,tissuebox.png,nonliving,old,113,old,0.569422960281,1,10,M,0.22034406662,4,,Children,,,1,
5,hairdryer.png,nonliving,old,116,new,1.59191417694,0,10,M,1.84154605865,1,,Children,,,,0
5,loofah.png,nonliving,old,117,old,1.17463183403,1,10,M,0.353681087494,4,,Children,,,1,
5,quartz.png,nonliving,old,120,old,1.19096684456,1,10,M,0.28725194931,4,,Children,,,1,
5,magnifyingglass.png,nonliving,old,121,old,0.839824914932,1,10,M,0.183861017227,4,,Children,,,1,
5,macaroni.png,nonliving,old,122,new,1.4747338295,0,10,M,0.287168979645,2,,Children,,,,0
5,coffeepot.png,nonliving,old,124,old,1.19079899788,1,10,M,0.0838680267334,4,,Children,,,1,
5,pencil.png,nonliving,old,125,old,1.12385010719,1,10,M,0.287024974823,4,,Children,,,1,
5,card_queenspade.png,nonliving,old,126,old,0.889798164368,1,10,M,0.384315013885,4,,Children,,,1,
5,drinkingfountain.png,nonliving,old,127,old,1.49148201942,1,10,M,0.32049202919,4,,Children,,,1,
5,handheldMirror.jpg,nonliving,old,128,old,1.39142107964,1,10,M,0.287060022354,4,,Children,,,1,
5,sandwich_egg.png,nonliving,old,129,old,1.22412395477,1,10,M,0.153388023376,4,,Children,,,1,
5,stoveAntique.jpg,nonliving,old,130,old,1.68907284737,1,10,M,0.571282863617,3,,Children,,,1,
5,hammer.png,nonliving,old,131,old,1.02397084236,1,10,M,0.404067993164,4,,Children,,,1,
5,gametable_airhockey.png,nonliving,old,132,old,2.02628803253,1,10,M,2.07545804977,2,,Children,,,,
5,carton_eggs.png,nonliving,old,134,old,1.77560591698,1,10,M,0.337375879288,4,,Children,,,1,
5,fuzzydice.jpg,nonliving,old,135,old,2.12651801109,1,10,M,0.387325048447,4,,Children,,,1,
5,domino.png,nonliving,old,136,old,0.990163087845,1,10,M,0.237101078033,4,,Children,,,1,
5,toy_alien.jpg,nonliving,old,137,old,1.2410531044,1,10,M,0.270466089249,4,,Children,,,1,
5,costume_wizard.jpg,nonliving,old,138,old,0.706037044525,1,10,M,0.270447969437,4,,Children,,,1,
5,diving_board.jpg,nonliving,old,140,old,1.62532305717,1,10,M,0.788478851318,4,,Children,,,1,
5,ram.png,living,old,143,old,1.64182806015,1,10,M,0.086364030838,4,,Children,,,1,
5,partyDress.png,nonliving,old,144,new,3.02883601189,0,10,M,0.688148021698,3,,Children,,,,0
5,escalator.png,nonliving,old,145,new,1.38829803467,0,10,M,0.220315933228,2,,Children,,,,0
5,drill.png,nonliving,old,146,old,1.29104399681,1,10,M,0.487841844559,4,,Children,,,1,
5,horse.png,living,old,147,new,4.34930896759,0,10,M,0.270426034927,2,,Children,,,,0
5,ship_battle.png,nonliving,old,148,old,1.30444216728,1,10,M,0.568133831024,4,,Children,,,1,
5,hat_tuque.png,nonliving,old,149,new,3.88129901886,0,10,M,0.387760162354,2,,Children,,,,0
5,crown.png,nonliving,old,151,old,1.92589712143,1,10,M,4.88311100006,3,,Children,,,1,
5,boots_hiking.png,nonliving,old,152,old,1.6253118515,1,10,M,0.287170886993,4,,Children,,,1,
5,dog_food.png,nonliving,old,153,old,0.689460992813,1,10,M,0.236981868744,4,,Children,,,1,
5,croissant.png,nonliving,old,154,old,0.622573137283,1,10,M,0.136482954025,4,,Children,,,1,
5,coin.jpg,nonliving,old,155,old,0.639780044556,1,10,M,0.13688492775,4,,Children,,,1,
5,gum_pack.png,nonliving,old,156,old,0.539354085922,1,10,M,0.133738040924,4,,Children,,,1,
5,bowling pin.png,nonliving,old,158,old,1.24118804932,1,10,M,0.370666027069,4,,Children,,,1,
5,drum_set.png,nonliving,old,159,new,1.19103813171,0,10,M,0.119957923889,3,,Children,,,,0
5,rollerblade.png,nonliving,old,160,old,1.24075889587,1,10,M,0.183902978897,4,,Children,,,1,
5,cake_wedding.png,nonliving,old,161,new,1.27429008484,0,10,M,0.0531871318817,3,,Children,,,,0
5,bottle_spray.jpg,nonliving,old,162,old,1.07400488853,1,10,M,0.688257932663,3,,Children,,,1,
5,diaper changing station.png,nonliving,old,164,old,0.973391056061,1,10,M,0.250747919083,4,,Children,,,1,
5,bolt.png,nonliving,old,165,old,1.90930700302,1,10,M,0.10338306427,2,,Children,,,,
5,bugle.png,nonliving,old,166,old,0.937036037445,1,10,M,0.119995117188,4,,Children,,,1,
5,pacifier.png,nonliving,old,167,old,0.940420150757,1,10,M,0.186985015869,4,,Children,,,1,
5,cautionSignFrench.png,nonliving,old,168,old,0.739758968353,1,10,M,0.11994099617,4,,Children,,,1,
5,boar.png,living,old,169,old,1.50522780418,1,10,M,0.270401954651,3,,Children,,,1,
5,pliers.png,nonliving,old,171,old,1.07367992401,1,10,M,0.537807941437,4,,Children,,,1,
5,tuxedo.jpg,nonliving,old,172,new,2.0765709877,0,10,M,0.654900789261,2,,Children,,,,0
5,teapot.png,nonliving,old,173,old,1.67606902122,1,10,M,0.337394952774,3,,Children,,,1,
5,glasses_sun.png,nonliving,old,174,old,4.73388004303,1,10,M,0.337191104889,3,,Children,,,1,
5,paintcan.jpg,nonliving,old,175,old,1.97614407539,1,10,M,0.287256002426,3,,Children,,,1,
5,paddle.png,nonliving,old,176,old,0.772886037827,1,10,M,0.387315034866,2,,Children,,,,
5,checkers_board.jpg,nonliving,old,177,old,1.02377295494,1,10,M,0.284026145935,4,,Children,,,1,
5,weights.png,nonliving,old,178,old,0.739509105682,1,10,M,0.320750951767,4,,Children,,,1,
5,oldBook.png,nonliving,old,180,old,1.04023194313,1,10,M,0.28805398941,4,,Children,,,1,
5,mask_hockeygoalie.png,nonliving,old,181,old,0.789990901947,1,10,M,0.070121049881,4,,Children,,,1,
5,slide_children.png,nonliving,old,184,old,0.940052986145,1,10,M,0.250617980957,4,,Children,,,1,
5,knife_butter.png,nonliving,old,185,old,1.05712485313,1,10,M,0.303874015808,4,,Children,,,1,
5,dreamcatcher.png,nonliving,old,186,old,0.873118877411,1,10,M,0.287065982819,4,,Children,,,1,
5,giftbow01.png,nonliving,old,187,old,0.789608001709,1,10,M,0.183789968491,4,,Children,,,1,
5,babybottle.jpg,nonliving,old,188,old,0.622420072556,1,10,M,0.186839103699,4,,Children,,,1,
5,cheeseGouda.png,nonliving,old,192,old,0.836766004562,1,10,M,0.270447015762,4,,Children,,,1,
5,piano_keyboard.png,nonliving,old,193,new,1.89265990257,0,10,M,0.133670806885,2,,Children,,,,0
5,ball_baseball.png,nonliving,old,194,old,0.873184919357,1,10,M,0.187237024307,4,,Children,,,1,
5,wheel_steering.jpg,nonliving,old,195,old,0.672593832016,1,10,M,0.287060022354,4,,Children,,,1,
5,cinnamonroll.png,nonliving,old,196,old,0.639262914658,1,10,M,0.136901140213,4,,Children,,,1,
5,puppettheatre.png,nonliving,old,197,old,0.722456216812,1,10,M,0.120083093643,4,,Children,,,1,
5,lawnmower.png,nonliving,old,198,old,0.538968086243,1,10,M,0.136727809906,4,,Children,,,1,
5,rug.png,nonliving,old,199,old,0.689399003983,1,10,M,0.0865290164948,4,,Children,,,1,
5,paddle_bread.png,nonliving,old,201,old,0.822924137115,1,10,M,0.136730909348,4,,Children,,,1,
5,chair_deck.png,nonliving,old,202,old,0.689434051514,1,10,M,0.284151077271,4,,Children,,,1,
5,hot pad.jpg,nonliving,old,204,old,0.772990942001,1,10,M,0.220674991608,4,,Children,,,1,
5,stapler.png,nonliving,old,205,old,0.589069128036,1,10,M,0.334349870682,4,,Children,,,1,
5,cow.png,living,old,207,old,1.44140005112,1,10,M,0.237026929855,4,,Children,,,1,
5,bag_garbage.png,nonliving,old,209,old,0.990232944489,1,10,M,0.287107944489,4,,Children,,,1,
5,socks_winter.png,nonliving,old,211,old,0.789693117142,1,10,M,0.437496185303,2,,Children,,,,
5,shrimp.png,nonliving,old,212,old,2.86169195175,1,10,M,0.287088871002,4,,Children,,,1,
5,chest_toys.png,nonliving,old,213,old,1.04034304619,1,10,M,0.236961126328,4,,Children,,,1,
5,tiara.png,nonliving,old,214,old,2.82851886749,1,10,M,0.688460111618,2,,Children,,,,
5,gingerbreadman.jpg,nonliving,old,215,old,3.06247210503,1,10,M,0.253695011139,4,,Children,,,1,
5,package.png,nonliving,old,216,old,0.8731508255,1,10,M,0.287187814713,4,,Children,,,1,
5,clip_paper.png,nonliving,old,217,old,0.589236974716,1,10,M,0.18407702446,4,,Children,,,1,
5,compass.png,nonliving,old,219,new,1.97620296478,0,10,M,0.337299108505,4,,Children,,,,0
5,perfume.png,nonliving,old,220,old,0.923219919205,1,10,M,0.237142086029,4,,Children,,,1,
5,portapotty.png,nonliving,old,222,old,0.786894083023,1,10,M,0.170386791229,4,,Children,,,1,
5,pan_muffin.png,nonliving,old,225,old,2.00975418091,1,10,M,0.501468896866,3,,Children,,,1,
5,water well.png,nonliving,old,226,old,1.02290487289,1,10,M,0.233977079391,4,,Children,,,1,
5,dust_pan.png,nonliving,old,228,old,0.836928129196,1,10,M,0.120044946671,4,,Children,,,1,
5,statue_head.png,nonliving,old,229,old,1.13765597343,1,10,M,0.0866508483887,4,,Children,,,1,
5,truck_tanker.png,nonliving,old,230,old,1.22465491295,1,10,M,0.337356090546,4,,Children,,,1,
5,net_butterfly.jpg,nonliving,old,231,old,1.12391495705,1,10,M,0.236959934235,4,,Children,,,1,
5,puzzlepiece.png,nonliving,old,232,new,4.13211202621,0,10,M,0.287144899368,3,,Children,,,,0
5,goldnugget.png,nonliving,old,233,old,0.990154981613,1,10,M,0.470936059952,4,,Children,,,1,
5,handbag.png,nonliving,old,234,old,4.73369407654,1,10,M,0.287029981613,3,,Children,,,1,
5,candydispenser.png,nonliving,old,235,old,0.889778852463,1,10,M,0.28754401207,3,,Children,,,1,
5,lightbulb.png,nonliving,old,236,new,1.78933882713,0,10,M,0.237034082413,3,,Children,,,,0
5,potFlowerClay.png,nonliving,old,238,new,1.34121084213,0,10,M,0.186792135239,2,,Children,,,,0
5,figurine_ballerina.jpg,nonliving,old,240,old,1.40808010101,1,10,M,0.33429980278,4,,Children,,,1,
5,doublebass.png,nonliving,old,241,old,0.739593982697,1,10,M,0.270450115204,4,,Children,,,1,
5,hyaena.jpg,living,old,243,old,1.77913999557,1,10,M,0.888771057129,4,,Children,,,1,
5,antlerheadband.png,nonliving,old,244,old,0.739531993866,1,10,M,0.350922107697,4,,Children,,,1,
5,babysocks.png,nonliving,old,245,old,0.820098876953,1,10,M,0.170174121857,4,,Children,,,1,
5,tray_icecube.png,nonliving,old,247,old,4.23240303993,1,10,M,0.186845064163,4,,Children,,,1,
5,table_side.jpg,nonliving,old,248,new,1.39118218422,0,10,M,0.186781167984,3,,Children,,,,0
5,basketballhoop.png,nonliving,old,249,old,1.22435498238,1,10,M,0.453608036041,4,,Children,,,1,
5,hedgehog.png,living,old,250,new,1.1238079071,0,10,M,0.588762998581,1,,Children,,,,0
5,snow globe.png,nonliving,old,251,old,3.17944097519,1,10,M,0.200542926788,2,,Children,,,,
5,plunger.png,nonliving,old,252,old,1.17408323288,1,10,M,0.186711072922,4,,Children,,,1,
5,zebra.jpg,living,old,255,new,0.886976957321,0,10,M,1.02247595787,1,,Children,,,,0
5,waterfountain.png,nonliving,old,256,new,2.97897291183,0,10,M,0.287089109421,2,,Children,,,,0
5,bat_baseball.png,nonliving,old,257,new,2.76177287102,0,10,M,0.287110805511,1,,Children,,,,0
5,bowl_cereal.png,nonliving,old,261,old,1.47471499443,1,10,M,0.938840866089,4,,Children,,,1,
5,bottle_plasticwater.png,nonliving,old,263,new,1.69199800491,0,10,M,0.334190130234,2,,Children,,,,0
5,street sweeper.png,nonliving,old,264,old,2.12668800354,1,10,M,0.384490013123,3,,Children,,,1,
5,sink.png,nonliving,old,266,new,2.19345903397,0,10,M,0.384356021881,2,,Children,,,,0
5,cup.jpg,nonliving,old,267,new,2.21044778824,0,10,M,0.337456941605,2,,Children,,,,0
5,sword.png,nonliving,old,268,old,1.39127898216,1,10,M,0.287169933319,3,,Children,,,1,
5,dog_leash.jpg,nonliving,old,269,new,1.29113292694,0,10,M,0.270389080048,3,,Children,,,,0
5,mop.png,nonliving,old,270,new,1.04035401344,0,10,M,0.287049770355,3,,Children,,,,0
5,crutches.jpg,nonliving,old,271,old,8.89501810074,1,10,M,0.170118093491,3,,Children,,,1,
5,toyStroller.jpg,nonliving,old,272,old,0.939950942993,1,10,M,0.337326049805,4,,Children,,,1,
5,guineaPig.png,living,old,273,old,1.32439398766,1,10,M,0.237040042877,4,,Children,,,1,
5,pajamas.png,nonliving,old,274,old,1.32441210747,1,10,M,0.136779069901,2,,Children,,,,
5,squirrel.jpg,living,old,276,old,1.224173069,1,10,M,0.136478900909,4,,Children,,,1,
5,glueGun.jpg,nonliving,old,279,old,1.10724592209,1,10,M,0.284142971039,4,,Children,,,1,
5,elephant.png,living,old,280,old,1.70900702477,1,10,M,0.23704791069,4,,Children,,,1,
5,building_door.png,nonliving,old,281,new,1.54160118103,0,10,M,0.0365271568298,2,,Children,,,,0
5,dog_cockerspaniel.jpg,living,old,282,old,2.22693920135,1,10,M,0.120045900345,2,,Children,,,,
5,tickets.png,nonliving,old,284,old,1.32441711426,1,10,M,0.337042093277,3,,Children,,,1,
5,sled.png,nonliving,old,285,old,2.39092588425,1,10,M,0.270371198654,3,,Children,,,1,
5,necklace_pearl.png,nonliving,old,286,old,1.39124107361,1,10,M,0.922260046005,3,,Children,,,1,
5,skirt.jpg,nonliving,old,287,old,0.78969502449,1,10,M,0.434451818466,3,,Children,,,1,
5,guacamole.png,nonliving,old,288,old,1.02354812622,1,10,M,0.237567186356,4,,Children,,,1,
5,horn_french.png,nonliving,old,289,new,1.84250617027,0,10,M,0.487716913223,2,,Children,,,,0
5,cookiecutter_bell.png,nonliving,old,290,old,0.990229129791,1,10,M,0.270432949066,4,,Children,,,1,
5,belt.png,nonliving,old,291,new,1.97627210617,0,10,M,0.337375879288,2,,Children,,,,0
5,pylonTraffic.jpg,nonliving,old,292,old,0.823603868484,1,10,M,0.587990045547,3,,Children,,,1,
5,chips.png,nonliving,old,293,old,0.939979076385,1,10,M,0.387466907501,4,,Children,,,1,
5,cake_cheese.png,nonliving,old,294,new,1.48854398727,0,10,M,0.0364940166473,3,,Children,,,,0
5,napkin_ring.png,nonliving,old,296,new,2.37729883194,0,10,M,0.086541891098,3,,Children,,,,0
5,giraffe.png,living,old,297,old,1.62529397011,1,10,M,0.136775016785,4,,Children,,,1,
5,doghouse.png,nonliving,old,298,new,1.14030599594,0,10,M,0.133685112,3,,Children,,,,0
5,microwave.png,nonliving,old,299,old,1.79233598709,1,10,M,0.838708877563,3,,Children,,,1,
5,pretzel.png,nonliving,old,300,old,6.8563170433,1,10,M,0.387437105179,4,,Children,,,1,
5,wreath.png,nonliving,old,301,old,9.31549096107,1,10,M,0.588027000427,4,,Children,,,1,
5,bin_recycling.png,nonliving,old,302,old,1.67247915268,1,10,M,0.67142701149,3,,Children,,,1,
5,sundae_banana.png,nonliving,old,303,old,2.94547986984,1,10,M,0.320589065552,3,,Children,,,1,
5,shirt_tshirt.png,nonliving,old,304,old,2.26024389267,1,10,M,0.337234020233,2,,Children,,,,
5,caterpillar_green.png,living,old,306,old,1.22472286224,1,10,M,0.287088871002,4,,Children,,,1,
5,lock_combination.jpg,nonliving,old,308,old,1.207447052,1,10,M,0.287041187286,4,,Children,,,1,
5,pig.png,living,old,310,new,1.67528605461,0,10,M,0.237077951431,2,,Children,,,,0
5,pants.png,nonliving,old,311,old,1.14133381844,1,10,M,0.236932992935,3,,Children,,,1,
5,number_3.png,nonliving,old,312,old,1.28854393959,1,10,M,0.271087169647,4,,Children,,,1,
5,rope_skipping.png,nonliving,old,313,new,1.44145679474,0,10,M,0.286770105362,3,,Children,,,,0
5,toy_truck.jpg,nonliving,old,315,old,1.70863604546,1,10,M,0.303303003311,3,,Children,,,1,
5,shelf_book.png,nonliving,old,316,new,1.29115796089,0,10,M,0.370712995529,3,,Children,,,,0
5,noisemaker.jpg,nonliving,old,317,new,1.57529497147,0,10,M,0.487925052643,3,,Children,,,,0
5,flute_wooden.png,nonliving,old,318,old,1.32436800003,1,10,M,0.287209033966,4,,Children,,,1,
5,pen.png,nonliving,old,319,old,1.09053301811,1,10,M,0.320628166199,4,,Children,,,1,
5,tricycle.png,nonliving,old,320,new,1.99281406403,0,10,M,0.237093925476,3,,Children,,,,0
5,ladder.png,nonliving,old,321,new,4.88423705101,0,10,M,0.287196874619,4,,Children,,,,0
5,peppermill.png,nonliving,old,322,new,1.39125990868,0,10,M,0.184005022049,3,,Children,,,,0
5,poles_ski.png,nonliving,old,323,new,1.42455601692,0,10,M,0.203659057617,3,,Children,,,,0
5,pin_clothes.png,nonliving,old,324,old,6.42207622528,1,10,M,0.337280988693,3,,Children,,,1,
5,englishmuffin.png,nonliving,old,326,old,2.3775370121,1,10,M,0.738382101059,4,,Children,,,1,
5,pencilsharpener.png,nonliving,old,330,old,1.2741959095,1,10,M,0.337363004684,4,,Children,,,1,
5,hose_garden.png,nonliving,old,332,old,1.97619009018,1,10,M,3.3458070755,3,,Children,,,1,
5,ribbon.jpg,nonliving,old,333,old,3.09294104576,1,10,M,1.12277793884,4,,Children,,,1,
5,soap.png,nonliving,old,334,old,1.52495789528,1,10,M,0.351102828979,4,,Children,,,1,
5,backpack.png,nonliving,old,335,new,1.6086139679,0,10,M,0.337228059769,3,,Children,,,,0
5,lollipop.png,nonliving,old,336,old,1.1912958622,1,10,M,0.270431041718,4,,Children,,,1,
5,dress_blue.jpg,nonliving,old,338,old,6.43841314316,1,10,M,0.25074005127,3,,Children,,,1,
5,binoculars.png,nonliving,old,339,old,1.05419301987,1,10,M,0.270503044128,3,,Children,,,1,
5,watercooler.png,nonliving,old,342,old,1.34127998352,1,10,M,0.237023115158,4,,Children,,,1,
5,chain_rusty.png,nonliving,old,343,old,1.18965315819,1,10,M,0.320806980133,4,,Children,,,1,
5,worldmap.png,nonliving,old,344,old,1.3746240139,1,10,M,0.236974000931,4,,Children,,,1,
5,concreteblock.png,nonliving,old,345,old,1.04033899307,1,10,M,0.287158966064,3,,Children,,,1,
5,saw.png,nonliving,old,346,old,0.873109102249,1,10,M,0.287199020386,3,,Children,,,1,
5,candycane.jpg,nonliving,old,347,old,1.40802097321,1,10,M,2.02531599998,4,,Children,,,1,
5,gun_nerf.jpg,nonliving,old,349,old,1.17395305634,1,10,M,0.688146829605,4,,Children,,,1,
5,dog_toy.png,nonliving,old,351,old,1.29119300842,1,10,M,0.300810098648,3,,Children,,,1,
5,telescope.png,nonliving,old,352,old,1.57514095306,1,10,M,0.270428180695,4,,Children,,,1,
5,bench_park.png,nonliving,old,353,new,1.39146304131,0,10,M,0.136797904968,3,,Children,,,,0
5,remotecontrol.png,nonliving,old,354,old,1.29118204117,1,10,M,0.571290016174,3,,Children,,,1,
5,pillow.png,nonliving,old,355,old,1.59219789505,1,10,M,0.220324039459,3,,Children,,,1,
5,trophy_man.png,nonliving,old,357,old,1.29081082344,1,10,M,0.537878990173,4,,Children,,,1,
5,helicopter.jpg,nonliving,old,358,old,1.27433514595,1,10,M,0.1868288517,3,,Children,,,1,
5,basket_straw.png,nonliving,old,359,new,3.93149590492,0,10,M,0.738425016403,2,,Children,,,,0
5,pictureframe.png,nonliving,old,360,old,1.02371692657,1,10,M,0.136693954468,4,,Children,,,1,
5,razor.png,nonliving,old,361,old,1.29100799561,1,10,M,0.186834096909,4,,Children,,,1,
5,arch.png,nonliving,old,362,new,1.44141793251,0,10,M,0.183740139008,3,,Children,,,,0
5,crayon_green.png,nonliving,old,363,old,1.02368211746,1,10,M,0.187136888504,4,,Children,,,1,
5,yarn_ball.png,nonliving,old,364,old,0.990137815475,1,10,M,0.537832021713,4,,Children,,,1,
5,lifejacket.png,nonliving,old,365,new,1.42491698265,0,10,M,1.27320194244,3,,Children,,,,0
5,dresser.png,nonliving,old,366,new,1.22423100471,0,10,M,0.0365040302277,3,,Children,,,,0
5,headphones.png,nonliving,old,368,new,1.4414908886,0,10,M,0.187027931213,3,,Children,,,,0
5,goggles_swim.png,nonliving,old,370,old,1.34161901474,1,10,M,0.0869119167328,3,,Children,,,1,
5,chalkboarderaser.png,nonliving,old,371,old,1.63893699646,1,10,M,0.170464992523,2,,Children,,,,
5,bug_ladybug.png,living,old,372,old,1.39183616638,1,10,M,0.103360176086,4,,Children,,,1,
5,letter_mail.png,nonliving,old,373,old,1.1877310276,1,10,M,0.119380950928,4,,Children,,,1,
5,television.png,nonliving,old,374,new,1.12405800819,0,10,M,1.13968992233,3,,Children,,,,0
5,pirateflag.jpg,nonliving,old,375,old,1.02348685265,1,10,M,0.487854957581,3,,Children,,,1,
5,button_plastic.png,nonliving,old,376,old,1.12449407578,1,10,M,0.0367758274078,3,,Children,,,1,
5,hairband.png,nonliving,old,377,old,5.63614296913,1,10,M,0.0865859985352,3,,Children,,,1,
5,shears_garden.jpg,nonliving,old,380,old,1.55849194527,1,10,M,0.13671207428,2,,Children,,,,
5,notebook_black.png,nonliving,old,381,old,1.53865909576,1,10,M,0.0197069644928,2,,Children,,,,
5,mug.png,nonliving,old,382,new,1.29099702835,0,10,M,0.136802196503,3,,Children,,,,0
5,rope.png,nonliving,old,383,old,0.990495920181,1,10,M,0.287545919418,4,,Children,,,1,
5,playdoh.png,nonliving,old,385,old,3.79470396042,1,10,M,0.871989011765,4,,Children,,,1,
5,barrel.png,nonliving,old,386,old,2.82859492302,1,10,M,0.0866479873657,3,,Children,,,1,
5,toad.png,living,old,387,old,1.57504296303,1,10,M,0.237082004547,4,,Children,,,1,
5,castle_sand.png,nonliving,old,389,new,3.63061094284,0,10,M,0.186807155609,3,,Children,,,,0
5,match.png,nonliving,old,390,old,1.18970298767,1,10,M,0.237288951874,4,,Children,,,1,
5,bib.png,nonliving,old,392,old,0.987201929092,1,10,M,0.0198268890381,3,,Children,,,1,
5,toys_lego.png,nonliving,old,393,old,0.940065145493,1,10,M,0.234052181244,4,,Children,,,1,
5,cloud.png,nonliving,old,394,new,1.22407603264,0,10,M,1.90834593773,2,,Children,,,,0
5,cashregister.png,nonliving,old,396,old,1.49169898033,1,10,M,0.22065114975,3,,Children,,,1,
5,bandage.jpg,nonliving,old,397,old,1.291451931,1,10,M,1.12275695801,4,,Children,,,1,
5,tomato sauce.jpg,nonliving,old,399,new,1.39148592949,0,10,M,0.133718013763,3,,Children,,,,0
5,tiger_white.png,living,old,401,old,2.67512512207,1,10,M,0.0836338996887,2,,Children,,,,
5,wateringcan.png,nonliving,old,402,new,2.47782993317,0,10,M,2.33967995644,3,,Children,,,,0
5,wheel barrow.png,nonliving,old,403,new,1.97673797607,0,10,M,0.186779022217,3,,Children,,,,0
5,toothpaste.png,nonliving,old,404,old,1.64204120636,1,10,M,0.989056110382,3,,Children,,,1,
5,balloon.jpg,nonliving,old,405,old,1.09067511559,1,10,M,0.170107126236,4,,Children,,,1,
5,calculator.png,nonliving,old,406,old,1.04029893875,1,10,M,0.170136213303,4,,Children,,,1,
5,snow shoes.png,nonliving,old,407,old,1.12411808968,1,10,M,0.287123203278,4,,Children,,,1,
5,radioclock.jpg,nonliving,old,408,new,1.90946507454,0,10,M,0.136687040329,3,,Children,,,,0
5,racoon.jpg,living,old,409,old,1.33810997009,1,10,M,0.384566068649,4,,Children,,,1,
5,mitten.png,nonliving,old,410,new,1.57221794128,0,10,M,1.57396101952,2,,Children,,,,0
5,squid.jpg,living,old,411,old,1.32481718063,1,10,M,0.221123933792,4,,Children,,,1,
5,bed.png,nonliving,old,413,new,1.75903105736,0,10,M,0.0364298820496,3,,Children,,,,0
5,candelabra.jpg,nonliving,old,414,new,1.34113812447,0,10,M,0.988878965378,3,,Children,,,,0
5,caribou.png,living,old,415,new,1.8090569973,0,10,M,1.28996801376,2,,Children,,,,0
5,qtip.png,nonliving,old,416,old,1.64190101624,1,10,M,0.0365600585938,2,,Children,,,,
5,watch.png,nonliving,old,417,old,1.92642498016,1,10,M,0.72118806839,3,,Children,,,1,
5,teabag.jpg,nonliving,old,418,old,2.17405390739,1,10,M,0.0201830863953,3,,Children,,,1,
5,dog_bulldog.jpg,living,old,420,new,1.42470502853,0,10,M,3.24533200264,1,,Children,,,,0
5,thumbtack.png,nonliving,old,421,old,1.54159879684,1,10,M,0.270431041718,4,,Children,,,1,
5,floortile.png,nonliving,old,422,old,1.07394194603,1,10,M,1.32338500023,4,,Children,,,1,
5,car_FerrariRed.jpg,nonliving,old,423,new,26.8266148567,0,10,M,0.0863878726959,3,,Children,,,,0
5,bells_christmas.png,nonliving,old,424,old,1.63904905319,1,10,M,0.337234973907,3,,Children,,,1,
6,net_butterfly.jpg,nonliving,old,1,new,4.38290095329,0,8,M,2.23936510086,2,,Children,,,,0
6,ambulance.png,nonliving,old,2,old,4.41680192947,1,8,M,1.57394385338,4,,Children,,,1,
6,drum_set.png,nonliving,old,4,old,2.74482107162,1,8,M,1.5906829834,4,,Children,,,1,
6,plasticChairGreen.jpg,nonliving,old,5,new,2.79552602768,0,8,M,1.47376799583,2,,Children,,,,0
6,mop.png,nonliving,old,6,new,3.36502099037,0,8,M,0.25369811058,1,,Children,,,,0
6,escalator.png,nonliving,old,7,old,2.59492397308,1,8,M,1.57422399521,3,,Children,,,1,
6,penguin.png,living,old,8,old,4.68406200409,1,8,M,2.05881094933,4,,Children,,,1,
6,bottle_spray.jpg,nonliving,old,9,old,2.41116499901,1,8,M,0.371234893799,4,,Children,,,1,
6,pylonTraffic.jpg,nonliving,old,10,new,2.27440190315,0,8,M,0.454606056213,1,,Children,,,,0
6,giftbox.jpg,nonliving,old,11,old,1.75936388969,1,8,M,0.470952987671,4,,Children,,,1,
6,dress_blue.jpg,nonliving,old,12,old,1.65910100937,1,8,M,0.116953849792,4,,Children,,,1,
6,balloon.jpg,nonliving,old,13,old,2.19383406639,1,8,M,0.0199930667877,4,,Children,,,1,
6,shears_garden.jpg,nonliving,old,14,old,1.74273395538,1,8,M,0.220582962036,3,,Children,,,1,
6,gum_pack.png,nonliving,old,15,new,2.64513802528,0,8,M,0.354032039642,2,,Children,,,,0
6,candle.png,nonliving,old,16,old,3.07962203026,1,8,M,1.05595898628,4,,Children,,,1,
6,soap_bottle.png,nonliving,old,17,old,1.94321894646,1,8,M,1.5575709343,1,,Children,,,,
6,hair_scrunchie.png,nonliving,old,18,old,2.19414687157,1,8,M,2.3926949501,4,,Children,,,1,
6,flipflopsBlue.png,nonliving,old,19,old,4.14922690392,1,8,M,1.30353403091,3,,Children,,,1,
6,checkers_board.jpg,nonliving,old,20,old,1.70926904678,1,8,M,1.23974108696,3,,Children,,,1,
6,towel.png,nonliving,old,21,new,1.75604391098,0,8,M,0.270396947861,1,,Children,,,,0
6,sandwich_egg.png,nonliving,old,22,old,2.0434820652,1,8,M,0.354089021683,4,,Children,,,1,
6,remotecontrol.png,nonliving,old,25,old,5.80377101898,1,8,M,0.103281974792,4,,Children,,,1,
6,horn_french.png,nonliving,old,27,old,3.1467769146,1,8,M,1.28962206841,3,,Children,,,1,
6,hat_hard.png,nonliving,old,28,old,6.48563981056,1,8,M,1.67426514626,3,,Children,,,1,
6,buffalo.png,living,old,29,new,1.82326483727,0,8,M,0.120387077332,2,,Children,,,,0
6,babybottle.jpg,nonliving,old,30,old,3.0627579689,1,8,M,0.184081077576,4,,Children,,,1,
6,rope_skipping.png,nonliving,old,31,new,2.26050209999,0,8,M,1.47390818596,1,,Children,,,,0
6,eraser.png,nonliving,old,32,old,5.30262207985,1,8,M,1.27321910858,4,,Children,,,1,
6,figurine_ballerina.jpg,nonliving,old,33,old,2.67835593224,1,8,M,0.103338003159,4,,Children,,,1,
6,tickets.png,nonliving,old,34,old,1.4251139164,1,8,M,0.0865950584412,4,,Children,,,1,
6,glove_baseball.png,nonliving,old,35,old,2.91213107109,1,8,M,1.2700009346,4,,Children,,,1,
6,socks_winter.png,nonliving,old,36,new,1.73960709572,0,8,M,2.67406702042,4,,Children,,,,0
6,lamp_street.png,nonliving,old,38,old,1.90960812569,1,8,M,1.6418530941,3,,Children,,,1,
6,bag_garbage.png,nonliving,old,39,old,2.67817616463,1,8,M,0.972297906876,4,,Children,,,1,
6,pencilCase.png,nonliving,old,40,old,1.32546591759,1,8,M,0.938871145248,4,,Children,,,1,
6,puzzlepiece.png,nonliving,old,42,old,1.91023802757,1,8,M,0.555141925812,4,,Children,,,1,
6,statue_metal_man.jpg,nonliving,old,43,old,2.89560103416,1,8,M,0.37153506279,4,,Children,,,1,
6,camel.png,living,old,44,old,3.26444792747,1,8,M,0.521123170853,4,,Children,,,1,
6,thumbtack.png,nonliving,old,45,old,2.21097397804,1,8,M,0.504405021667,4,,Children,,,1,
6,cup.jpg,nonliving,old,46,old,4.56685709953,1,8,M,0.989038944244,4,,Children,,,1,
6,radioclock.jpg,nonliving,old,47,old,0.973734855652,1,8,M,0.601619958878,4,,Children,,,1,
6,boots_hiking.png,nonliving,old,48,new,2.3610470295,0,8,M,0.387516021729,4,,Children,,,,0
6,cautionSignFrench.png,nonliving,old,49,new,0.823552131653,0,8,M,0.454264163971,4,,Children,,,,0
6,pyramid.png,nonliving,old,50,new,0.739806890488,0,8,M,0.537858963013,4,,Children,,,,0
6,pin_clothes.png,nonliving,old,51,new,3.49735283852,0,8,M,1.1896469593,2,,Children,,,,0
6,sign_washroom.png,nonliving,old,52,old,2.02673101425,1,8,M,0.571205854416,4,,Children,,,1,
6,shoe_sneaker.png,nonliving,old,53,old,0.72287607193,1,8,M,0.504492998123,4,,Children,,,1,
6,electricoutlet.png,nonliving,old,55,old,2.40804100037,1,8,M,1.15618395805,4,,Children,,,1,
6,boxingGloves.png,nonliving,old,56,old,1.39155387878,1,8,M,0.420828104019,4,,Children,,,1,
6,playground.png,nonliving,old,58,old,1.75959300995,1,8,M,0.437523126602,4,,Children,,,1,
6,kitchen sink.jpg,nonliving,old,59,old,1.65916514397,1,8,M,0.534797906876,4,,Children,,,1,
6,pitcher_plastic.png,nonliving,old,60,new,2.36085510254,0,8,M,0.638237953186,2,,Children,,,,0
6,stoveAntique.jpg,nonliving,old,61,new,5.30237603188,0,8,M,1.62411499023,2,,Children,,,,0
6,milk_shake.jpg,nonliving,old,63,old,7.27328014374,1,8,M,0.772338151932,1,,Children,,,,
6,compass.png,nonliving,old,64,old,1.49187302589,1,8,M,2.34306502342,4,,Children,,,1,
6,swing set.jpg,nonliving,old,66,old,2.61092090607,1,8,M,0.387481927872,4,,Children,,,1,
6,skates.png,nonliving,old,67,new,2.36075997353,0,8,M,0.354070901871,4,,Children,,,,0
6,box_chocolate.png,nonliving,old,68,old,2.36103081703,1,8,M,0.805260896683,4,,Children,,,1,
6,mouse.jpg,living,old,69,old,3.39754581451,1,8,M,0.688226938248,4,,Children,,,1,
6,binoculars.png,nonliving,old,71,old,6.20152401924,1,8,M,0.537651777267,4,,Children,,,1,
6,toilet.png,nonliving,old,74,old,2.77546620369,1,8,M,0.303780078888,4,,Children,,,1,
6,paddle_bread.png,nonliving,old,75,new,2.09355282784,0,8,M,0.320456981659,4,,Children,,,,0
6,rolling pin.jpg,nonliving,old,76,old,1.44191503525,1,8,M,0.303892850876,4,,Children,,,1,
6,wolf.png,living,old,77,old,1.47513794899,1,8,M,0.300801038742,4,,Children,,,1,
6,gloves_winter.png,nonliving,old,78,new,2.52816009521,0,8,M,0.401075839996,1,,Children,,,,0
6,cookie_jar.jpg,nonliving,old,79,old,2.74537992477,1,8,M,0.354167938232,4,,Children,,,1,
6,yarn_ball.png,nonliving,old,80,new,1.85958790779,0,8,M,0.454297065735,1,,Children,,,,0
6,pacifier.png,nonliving,old,81,old,2.07684206963,1,8,M,0.401124954224,4,,Children,,,1,
6,bench_park.png,nonliving,old,82,old,1.79296588898,1,8,M,0.370671987534,4,,Children,,,1,
6,bells_christmas.png,nonliving,old,83,old,0.973911046982,1,8,M,0.454293966293,4,,Children,,,1,
6,globe.png,nonliving,old,84,old,0.656413078308,1,8,M,0.420838832855,4,,Children,,,1,
6,belt.png,nonliving,old,86,new,1.52532792091,0,8,M,0.604117870331,4,,Children,,,,0
6,puppettheatre.png,nonliving,old,87,old,1.2076189518,1,8,M,0.888776063919,1,,Children,,,,
6,snow globe.png,nonliving,old,88,old,3.44473195076,1,8,M,0.437587976456,4,,Children,,,1,
6,flashlight.png,nonliving,old,91,old,2.46128296852,1,8,M,0.471012830734,4,,Children,,,1,
6,walkitalkie.png,nonliving,old,92,old,0.689626932144,1,8,M,0.387840986252,4,,Children,,,1,
6,antlerheadband.png,nonliving,old,93,old,0.388915061951,1,8,M,0.337254047394,4,,Children,,,1,
6,bread_unleavened.png,nonliving,old,94,old,0.372225999832,1,8,M,0.337386846542,4,,Children,,,1,
6,hoodieGray.jpg,nonliving,old,95,old,0.489191055298,1,8,M,0.384397983551,4,,Children,,,1,
6,cinnamonroll.png,nonliving,old,96,old,1.30823588371,1,8,M,0.270444869995,4,,Children,,,1,
6,match.png,nonliving,old,97,old,0.856847047806,1,8,M,0.237102031708,4,,Children,,,1,
6,pictureframe.png,nonliving,old,98,old,0.823496103287,1,8,M,0.334485054016,4,,Children,,,1,
6,soap.png,nonliving,old,99,old,0.573049068451,1,8,M,0.337307929993,4,,Children,,,1,
6,doublebass.png,nonliving,old,100,old,0.489070177078,1,8,M,0.370736837387,4,,Children,,,1,
6,seahorse.png,living,old,102,new,3.61445999146,0,8,M,2.32604312897,1,,Children,,,,0
6,spotlight.png,nonliving,old,105,old,1.69250702858,1,8,M,0.855454921722,4,,Children,,,1,
6,dust_pan.png,nonliving,old,106,new,1.47496199608,0,8,M,0.287202119827,4,,Children,,,,0
6,babysocks.png,nonliving,old,108,old,1.95694899559,1,8,M,0.354022026062,4,,Children,,,1,
6,pliers.png,nonliving,old,109,old,1.32478785515,1,8,M,0.437451839447,4,,Children,,,1,
6,cat.png,living,old,111,new,2.11013698578,0,8,M,1.23981785774,1,,Children,,,,0
6,perfume.png,nonliving,old,112,new,1.92341303825,0,8,M,1.02257490158,4,,Children,,,,0
6,watercolorpaintset.png,nonliving,old,113,old,1.24103307724,1,8,M,0.303858041763,4,,Children,,,1,
6,grasshopper.png,living,old,114,old,1.22144508362,1,8,M,0.253704071045,4,,Children,,,1,
6,pirateflag.jpg,nonliving,old,115,old,1.0542178154,1,8,M,0.30387878418,4,,Children,,,1,
6,toothbrush.png,nonliving,old,116,old,0.739921092987,1,8,M,0.253739833832,4,,Children,,,1,
6,paper towel.jpg,nonliving,old,117,old,0.790030002594,1,8,M,0.153450012207,4,,Children,,,1,
6,lizard.png,living,old,118,old,1.12125301361,1,8,M,0.237018108368,4,,Children,,,1,
6,paddle.png,nonliving,old,119,old,0.642595052719,1,8,M,1.10656380653,4,,Children,,,1,
6,plunger.png,nonliving,old,120,old,0.419363975525,1,8,M,0.337317943573,4,,Children,,,1,
6,bucket_halloween.jpg,nonliving,old,121,old,1.72568416595,1,8,M,0.92223405838,4,,Children,,,1,
6,crab.png,living,old,123,new,1.10757303238,0,8,M,0.551542043686,4,,Children,,,,0
6,macaque.png,living,old,124,old,2.56159710884,1,8,M,2.15886592865,4,,Children,,,1,
6,whisk_electric.jpg,nonliving,old,125,new,1.97666788101,0,8,M,0.618350982666,1,,Children,,,,0
6,pen.png,nonliving,old,126,new,3.31366801262,0,8,M,0.537775993347,2,,Children,,,,0
6,lifejacket.png,nonliving,old,127,old,2.51119089127,1,8,M,0.370673179626,4,,Children,,,1,
6,costume_wizard.jpg,nonliving,old,128,old,1.0406692028,1,8,M,0.253741025925,4,,Children,,,1,
6,toy_slinky.png,nonliving,old,129,old,0.890376091003,1,8,M,0.119819879532,4,,Children,,,1,
6,motorcycle.png,nonliving,old,130,old,0.923779010773,1,8,M,0.237027168274,4,,Children,,,1,
6,toolkit_open.png,nonliving,old,131,old,1.37199902534,1,8,M,1.18966197968,1,,Children,,,,
6,tape.png,nonliving,old,132,old,2.24098706245,1,8,M,0.237011909485,4,,Children,,,1,
6,bin_recycling.png,nonliving,old,133,new,1.68923211098,0,8,M,0.372236013412,2,,Children,,,,0
6,basketballhoop.png,nonliving,old,134,old,1.34150099754,1,8,M,0.353900909424,4,,Children,,,1,
6,pailGarden.png,nonliving,old,135,new,1.65577912331,0,8,M,0.170142889023,1,,Children,,,,0
6,fork.png,nonliving,old,138,new,2.52813601494,0,8,M,0.420720100403,4,,Children,,,,0
6,scooter.png,nonliving,old,139,new,1.25821900368,0,8,M,1.28988099098,1,,Children,,,,0
6,birdhouse.png,nonliving,old,140,old,3.59436297417,1,8,M,0.28753900528,4,,Children,,,1,
6,spiderweb.png,nonliving,old,141,old,1.80933308601,1,8,M,0.838707923889,4,,Children,,,1,
6,tap_bathroom.jpg,nonliving,old,142,old,1.2046251297,1,8,M,0.721668958664,4,,Children,,,1,
6,fan.png,nonliving,old,144,old,5.70350503922,1,8,M,0.32070183754,4,,Children,,,1,
6,quartz.png,nonliving,old,145,old,2.02672505379,1,8,M,0.3206179142,4,,Children,,,1,
6,noisemaker.jpg,nonliving,old,146,old,1.45858192444,1,8,M,0.367629051208,4,,Children,,,1,
6,candydispenser.png,nonliving,old,147,old,0.990421772003,1,8,M,0.300841093063,4,,Children,,,1,
6,grillGas.jpg,nonliving,old,148,old,1.13801312447,1,8,M,0.350957870483,4,,Children,,,1,
6,sink.png,nonliving,old,149,old,0.937487125397,1,8,M,0.805527925491,4,,Children,,,1,
6,ice cubes.png,nonliving,old,150,old,1.05737686157,1,8,M,0.40416097641,4,,Children,,,1,
6,sword.png,nonliving,old,152,old,0.990545988083,1,8,M,1.12289500237,4,,Children,,,1,
6,fish_rockbass.png,living,old,154,new,1.24107503891,0,8,M,1.47372603416,1,,Children,,,,0
6,slide_children.png,nonliving,old,155,old,1.39183712006,1,8,M,1.2063741684,4,,Children,,,1,
6,tablePingPong.jpg,nonliving,old,156,old,1.12096595764,1,8,M,0.387449026108,4,,Children,,,1,
6,concreteblock.png,nonliving,old,157,old,1.37497019768,1,8,M,0.284123897552,4,,Children,,,1,
6,toothpaste.png,nonliving,old,159,old,3.22777986526,1,8,M,0.518316984177,4,,Children,,,1,
6,crutches.jpg,nonliving,old,160,old,1.40824198723,1,8,M,0.454300165176,4,,Children,,,1,
6,toy_truck.jpg,nonliving,old,161,old,0.839982032776,1,8,M,0.303864002228,4,,Children,,,1,
6,cashregister.png,nonliving,old,162,new,2.17710995674,0,8,M,0.30401301384,4,,Children,,,,0
6,lipstick.png,nonliving,old,163,old,1.44184207916,1,8,M,0.303823947906,4,,Children,,,1,
6,bus_doubledecker.png,nonliving,old,166,old,1.54209589958,1,8,M,0.300797939301,4,,Children,,,1,
6,iguana.png,living,old,167,new,2.3911921978,0,8,M,0.688184976578,4,,Children,,,,0
6,potFlowerClay.png,nonliving,old,168,old,1.25798511505,1,8,M,0.286909818649,4,,Children,,,1,
6,worldmap.png,nonliving,old,169,old,0.990430116653,1,8,M,0.28712105751,4,,Children,,,1,
6,garbageBin.jpg,nonliving,old,170,old,1.0237557888,1,8,M,0.303947925568,4,,Children,,,1,
6,comb.png,nonliving,old,171,new,1.57563996315,0,8,M,0.353999137878,4,,Children,,,,0
6,whistle.png,nonliving,old,172,old,1.69207382202,1,8,M,0.688336849213,4,,Children,,,1,
6,hose_garden.png,nonliving,old,173,new,2.24418902397,0,8,M,0.721699953079,1,,Children,,,,0
6,statue_head.png,nonliving,old,174,old,1.34151291847,1,8,M,0.43753194809,4,,Children,,,1,
6,tuxedo.jpg,nonliving,old,175,old,1.1578400135,1,8,M,0.217250823975,4,,Children,,,1,
6,cake_wedding.png,nonliving,old,177,new,2.67840194702,0,8,M,0.537963151932,1,,Children,,,,0
6,seal_animal.png,living,old,179,old,3.19664120674,1,8,M,0.083564043045,4,,Children,,,1,
6,bumblebee.png,living,old,181,old,2.71191811562,1,8,M,1.10595488548,4,,Children,,,1,
6,wallet_blackleather.png,nonliving,old,182,old,1.72285509109,1,8,M,0.370929956436,4,,Children,,,1,
6,Baby-Bunny-Wallpaper-Free-Download.png,living,old,183,old,1.04061794281,1,8,M,0.220263004303,4,,Children,,,1,
6,toy_jack-in-the-box.jpg,nonliving,old,184,old,1.87628483772,1,8,M,0.50471496582,4,,Children,,,1,
6,doorbolt.png,nonliving,old,187,new,2.04316997528,0,8,M,0.571367025375,2,,Children,,,,0
6,plain_rice.jpg,nonliving,old,188,new,1.67578291893,0,8,M,0.287117004395,4,,Children,,,,0
6,shampoo.jpg,nonliving,old,189,old,1.82630801201,1,8,M,0.303875923157,4,,Children,,,1,
6,partyDress.png,nonliving,old,190,old,1.62564206123,1,8,M,0.551490068436,4,,Children,,,1,
6,glassBall.jpg,nonliving,old,192,new,2.07355093956,0,8,M,1.87482500076,2,,Children,,,,0
6,bandage.jpg,nonliving,old,193,old,2.8126502037,1,8,M,0.42106294632,4,,Children,,,1,
6,drill.png,nonliving,old,195,old,2.19088101387,1,8,M,0.417787790298,4,,Children,,,1,
6,thermometer.png,nonliving,old,196,old,5.18224406242,1,8,M,0.421233177185,3,,Children,,,1,
6,wirebeadmaze.png,nonliving,old,198,new,2.29387307167,0,8,M,0.939008951187,2,,Children,,,,0
6,paintcan.jpg,nonliving,old,199,old,1.388671875,1,8,M,1.99194002151,1,,Children,,,,
6,notepad.jpg,nonliving,old,200,new,1.80946493149,0,8,M,0.487725973129,2,,Children,,,,0
6,bucket_antique.png,nonliving,old,201,old,1.67580389977,1,8,M,0.8553211689,4,,Children,,,1,
6,croissant.png,nonliving,old,202,old,1.2075419426,1,8,M,0.337982177734,4,,Children,,,1,
6,bottle_plasticwater.png,nonliving,old,203,old,0.723191976547,1,8,M,0.95257806778,1,,Children,,,,
6,bird_eagle 2.png,living,old,204,old,2.32731199265,1,8,M,1.18951296806,4,,Children,,,1,
6,telescope.png,nonliving,old,206,old,1.60904097557,1,8,M,0.471005916595,4,,Children,,,1,
6,feather.png,nonliving,old,207,old,2.02666711807,1,8,M,0.704967975616,4,,Children,,,1,
6,donutFloaty.png,nonliving,old,209,old,2.87574982643,1,8,M,0.437542915344,4,,Children,,,1,
6,flute_wooden.png,nonliving,old,211,new,7.35768795013,0,8,M,1.67422509193,2,,Children,,,,0
6,inukshuk.png,nonliving,old,212,old,2.36076402664,1,8,M,0.537846088409,4,,Children,,,1,
6,wreath.png,nonliving,old,213,old,1.49165511131,1,8,M,0.354344129562,4,,Children,,,1,
6,loofah.png,nonliving,old,214,new,1.48892116547,0,8,M,0.337323904037,2,,Children,,,,0
6,starfish.png,living,old,215,old,1.30822205544,1,8,M,0.320587873459,4,,Children,,,1,
6,notebook_black.png,nonliving,old,216,new,1.47662186623,0,8,M,0.237031936646,2,,Children,,,,0
6,sundae_banana.png,nonliving,old,217,old,1.05752301216,1,8,M,0.420830011368,4,,Children,,,1,
6,hairdryer.png,nonliving,old,218,old,1.15777587891,1,8,M,0.320376873016,4,,Children,,,1,
6,pool_kiddie.png,nonliving,old,219,old,1.4920399189,1,8,M,0.270473003387,4,,Children,,,1,
6,oldBook.png,nonliving,old,221,new,2.64512705803,0,8,M,0.404171943665,1,,Children,,,,0
6,whale.jpg,living,old,222,old,3.54758906364,1,8,M,1.37037396431,3,,Children,,,1,
6,building_door.png,nonliving,old,225,old,1.90961909294,1,8,M,0.32105588913,4,,Children,,,1,
6,clock_digital.png,nonliving,old,226,new,2.42778515816,0,8,M,1.1062541008,4,,Children,,,,0
6,mannequin.jpg,nonliving,old,228,new,2.22742986679,0,8,M,0.771800041199,4,,Children,,,,0
6,lock_combination.jpg,nonliving,old,230,old,2.19086384773,1,8,M,0.0699028968811,4,,Children,,,1,
6,snorkle.jpg,nonliving,old,233,old,1.55874490738,1,8,M,1.74115490913,4,,Children,,,1,
6,bowtie.jpg,nonliving,old,234,new,1.75936889648,0,8,M,0.320567846298,4,,Children,,,,0
6,television.png,nonliving,old,236,old,1.17417097092,1,8,M,2.74393510818,2,,Children,,,,
6,teapot.png,nonliving,old,237,old,6.20492005348,1,8,M,1.28984498978,2,,Children,,,,
6,cake_cheese.png,nonliving,old,239,old,1.17142510414,1,8,M,0.538630962372,4,,Children,,,1,
6,key_car.png,nonliving,old,240,old,1.45848107338,1,8,M,0.337343215942,4,,Children,,,1,
6,stapler.png,nonliving,old,241,old,1.40863204002,1,8,M,0.370719194412,4,,Children,,,1,
6,firstAidKit.png,nonliving,old,242,old,1.48897480965,1,8,M,0.387547016144,4,,Children,,,1,
6,tire_car.png,nonliving,old,243,old,2.32721495628,1,8,M,0.203603029251,4,,Children,,,1,
6,ruler_triangle.png,nonliving,old,244,old,1.00736188889,1,8,M,0.117000818253,4,,Children,,,1,
6,chair_deck.png,nonliving,old,245,old,0.973931074142,1,8,M,0.237013816833,4,,Children,,,1,
6,kite.png,nonliving,old,246,old,2.46123099327,1,8,M,0.320640087128,4,,Children,,,1,
6,drinkingfountain.png,nonliving,old,247,old,1.10753893852,1,8,M,0.869006156921,1,,Children,,,,
6,candycane.jpg,nonliving,old,250,old,1.73962306976,1,8,M,2.45983314514,4,,Children,,,1,
6,coffeepot.png,nonliving,old,251,old,1.7091460228,1,8,M,0.421997070312,4,,Children,,,1,
6,cougar.png,living,old,252,old,5.15163016319,1,8,M,3.62648320198,4,,Children,,,1,
6,giftbow01.png,nonliving,old,253,old,2.52501893044,1,8,M,0.437655925751,4,,Children,,,1,
6,truck_tanker.png,nonliving,old,254,old,0.990496873856,1,8,M,0.38743686676,4,,Children,,,1,
6,space shuttle.png,nonliving,old,255,old,0.773382902145,1,8,M,0.37091588974,4,,Children,,,1,
6,dog_leash.jpg,nonliving,old,256,new,2.22735691071,0,8,M,0.454246044159,4,,Children,,,,0
6,brush_paint.png,nonliving,old,257,new,1.74270415306,0,8,M,0.253729104996,4,,Children,,,,0
6,origamiPaper.png,nonliving,old,260,old,3.86932182312,1,8,M,0.236984968185,4,,Children,,,1,
6,chips.png,nonliving,old,261,old,5.03192806244,1,8,M,0.304126024246,4,,Children,,,1,
6,shoe_pumps.jpg,nonliving,old,262,old,1.05714797974,1,8,M,0.0532119274139,4,,Children,,,1,
6,laces.jpg,nonliving,old,263,old,1.07390999794,1,8,M,0.401082992554,4,,Children,,,1,
6,playdoh.png,nonliving,old,265,old,2.01004385948,1,8,M,0.337280988693,4,,Children,,,1,
6,bird_toucan.png,living,old,269,old,3.58099389076,1,8,M,0.334249973297,4,,Children,,,1,
6,dolphin.png,living,old,270,new,1.74231791496,0,8,M,0.969262838364,3,,Children,,,,0
6,newspaper_stack.png,nonliving,old,271,old,1.09086298943,1,8,M,0.300781011581,4,,Children,,,1,
6,qtip.png,nonliving,old,272,old,1.27475905418,1,8,M,0.387434005737,4,,Children,,,1,
6,mug.png,nonliving,old,273,old,1.54210591316,1,8,M,1.32345294952,2,,Children,,,,
6,doghouse.png,nonliving,old,274,old,1.42503404617,1,8,M,1.69093990326,4,,Children,,,1,
6,ball_baseball.png,nonliving,old,275,old,2.09354996681,1,8,M,0.303829908371,4,,Children,,,1,
6,skirt.jpg,nonliving,old,276,old,2.14379692078,1,8,M,0.236976146698,4,,Children,,,1,
6,umbrella.png,nonliving,old,277,old,1.20782899857,1,8,M,1.73800492287,2,,Children,,,,
6,cloud.png,nonliving,old,278,new,1.55859708786,0,8,M,1.67121601105,1,,Children,,,,0
6,firehydrant.png,nonliving,old,280,old,1.57614398003,1,8,M,0.504572153091,4,,Children,,,1,
6,englishmuffin.png,nonliving,old,282,old,1.12398695946,1,8,M,0.203608036041,4,,Children,,,1,
6,pillow.png,nonliving,old,283,old,0.756422042847,1,8,M,0.153551101685,4,,Children,,,1,
6,watergun.png,nonliving,old,284,old,1.29106688499,1,8,M,0.0700418949127,4,,Children,,,1,
6,egg_easter.jpg,nonliving,old,285,old,2.54459309578,1,8,M,0.271074056625,4,,Children,,,1,
6,chalkboarderaser.png,nonliving,old,289,new,1.2048330307,0,8,M,1.17294597626,1,,Children,,,,0
6,hammer.png,nonliving,old,290,new,1.55873298645,0,8,M,0.0699601173401,4,,Children,,,,0
6,windowblinds.png,nonliving,old,292,new,1.52519202232,0,8,M,0.571251869202,4,,Children,,,,0
6,microwave.png,nonliving,old,293,old,2.32760691643,1,8,M,0.100271940231,4,,Children,,,1,
6,scissors.png,nonliving,old,294,old,1.74255800247,1,8,M,1.47414898872,4,,Children,,,1,
6,carton_eggs.png,nonliving,old,295,old,1.45848798752,1,8,M,0.334179878235,4,,Children,,,1,
6,tricycle.png,nonliving,old,297,old,1.35818982124,1,8,M,0.170774936676,4,,Children,,,1,
6,backpack.png,nonliving,old,298,old,1.68918085098,1,8,M,1.18968296051,4,,Children,,,1,
6,floortile.png,nonliving,old,300,old,1.30779790878,1,8,M,0.538016796112,4,,Children,,,1,
6,stick_ice hockey.png,nonliving,old,301,old,1.09067201614,1,8,M,0.855359077454,1,,Children,,,,
6,knife_butter.png,nonliving,old,302,old,1.35532903671,1,8,M,0.387420892715,4,,Children,,,1,
6,shrimp.png,nonliving,old,304,new,0.923504114151,0,8,M,0.704945802689,1,,Children,,,,0
6,chest_toys.png,nonliving,old,305,new,4.95142817497,0,8,M,1.54056978226,3,,Children,,,,0
6,washingmachine.png,nonliving,old,306,new,5.56980800629,0,8,M,0.972272157669,2,,Children,,,,0
6,1bear_polarbear.png,living,old,307,new,2.77567911148,0,8,M,0.137444972992,4,,Children,,,,0
6,lobster.png,living,old,309,old,1.73951411247,1,8,M,0.5378510952,1,,Children,,,,
6,staircase.jpg,nonliving,old,310,new,1.692289114,0,8,M,0.401085853577,4,,Children,,,,0
6,waterfountain.png,nonliving,old,311,new,1.85941100121,0,8,M,0.401111841202,4,,Children,,,,0
6,necklace_pearl.png,nonliving,old,312,old,1.86132693291,1,8,M,0.233957052231,4,,Children,,,1,
6,swan.png,living,old,313,new,1.82629585266,0,8,M,0.420850992203,4,,Children,,,,0
6,pencilsharpener.png,nonliving,old,316,old,2.11084794998,1,8,M,0.638113021851,4,,Children,,,1,
6,stroller.png,nonliving,old,318,new,2.97911810875,0,8,M,0.200536966324,4,,Children,,,,0
6,clam.png,living,old,319,old,1.94016885757,1,8,M,0.237051963806,4,,Children,,,1,
6,macaroni.png,nonliving,old,320,old,1.64227509499,1,8,M,0.387423992157,4,,Children,,,1,
6,piano_keyboard.png,nonliving,old,321,old,1.52529001236,1,8,M,0.337291955948,4,,Children,,,1,
6,street sweeper.png,nonliving,old,322,old,1.02385115623,1,8,M,0.30385684967,4,,Children,,,1,
6,crown.png,nonliving,old,325,old,5.2018198967,1,8,M,0.32083106041,4,,Children,,,1,
6,megaphone.png,nonliving,old,326,new,3.86516499519,0,8,M,0.270377874374,4,,Children,,,,0
6,bagel.png,nonliving,old,328,old,1.42210292816,1,8,M,0.384402036667,4,,Children,,,1,
6,weights.png,nonliving,old,329,old,1.2577419281,1,8,M,0.337543010712,4,,Children,,,1,
6,domino.png,nonliving,old,330,old,1.00738215446,1,8,M,1.11970615387,1,,Children,,,,
6,card_queenspade.png,nonliving,old,331,old,1.35815191269,1,8,M,1.29002285004,4,,Children,,,1,
6,turtle.png,living,old,332,old,2.74203586578,1,8,M,0.183836936951,4,,Children,,,1,
6,kangaroo.png,living,old,334,new,1.02401614189,0,8,M,0.337445020676,4,,Children,,,,0
6,gazebo_wooden.png,nonliving,old,335,old,2.36090397835,1,8,M,0.52118396759,4,,Children,,,1,
6,shirt_tshirt.png,nonliving,old,336,new,3.34365797043,0,8,M,0.420920848846,4,,Children,,,,0
6,clip_paper.png,nonliving,old,338,old,1.73959493637,1,8,M,0.303794145584,4,,Children,,,1,
6,brush_makeup.png,nonliving,old,339,new,2.34425187111,0,8,M,0.253826856613,4,,Children,,,,0
6,dog_food.png,nonliving,old,340,old,1.00730395317,1,8,M,0.287016153336,4,,Children,,,1,
6,car_FerrariRed.jpg,nonliving,old,341,old,0.723125934601,1,8,M,0.370777845383,4,,Children,,,1,
6,rug.png,nonliving,old,342,new,1.22454190254,0,8,M,0.236909151077,4,,Children,,,,0
6,toys_lego.png,nonliving,old,343,old,1.67576599121,1,8,M,0.233815908432,4,,Children,,,1,
6,gun_nerf.jpg,nonliving,old,344,old,0.839910030365,1,8,M,0.40416097641,4,,Children,,,1,
6,spoons_measuring.jpg,nonliving,old,345,old,1.05750393867,1,8,M,0.451091051102,4,,Children,,,1,
6,trafficlight.png,nonliving,old,346,old,0.589526891708,1,8,M,0.203545093536,4,,Children,,,1,
6,ladder.png,nonliving,old,347,old,0.739985942841,1,8,M,1.65755081177,1,,Children,,,,
6,hat_party.png,nonliving,old,348,new,1.40839290619,0,8,M,0.354079008102,4,,Children,,,,0
6,drainplug.png,nonliving,old,349,old,1.52531099319,1,8,M,0.217252969742,4,,Children,,,1,
6,outhouse.png,nonliving,old,350,new,1.92656302452,0,8,M,0.772063970566,1,,Children,,,,0
6,trophy_man.png,nonliving,old,351,old,1.70956397057,1,8,M,0.136672019958,4,,Children,,,1,
6,saw.png,nonliving,old,352,new,1.62567281723,0,8,M,1.12277889252,4,,Children,,,,0
6,bugle.png,nonliving,old,354,old,1.00715494156,1,8,M,2.15895390511,3,,Children,,,1,
6,guacamole.png,nonliving,old,355,old,3.07940387726,1,8,M,0.271039009094,4,,Children,,,1,
6,rollerblade.png,nonliving,old,357,new,1.27245593071,0,8,M,0.133903980255,4,,Children,,,,0
6,mousepad.png,nonliving,old,358,old,1.77590203285,1,8,M,0.337366104126,4,,Children,,,1,
6,ring_diamond.png,nonliving,old,359,new,2.77879619598,0,8,M,0.30394411087,4,,Children,,,,0
6,oven.png,nonliving,old,362,new,1.70922207832,0,8,M,0.855440139771,4,,Children,,,,0
6,gingerbreadman.jpg,nonliving,old,363,old,1.70625114441,1,8,M,0.387729167938,4,,Children,,,1,
6,gametable_airhockey.png,nonliving,old,364,old,2.04048109055,1,8,M,0.271008014679,4,,Children,,,1,
6,lionWalking.png,living,old,365,new,1.84263420105,0,8,M,0.354072093964,4,,Children,,,,0
6,candy.png,nonliving,old,366,old,2.47493696213,1,8,M,0.705168962479,4,,Children,,,1,
6,wateringcan.png,nonliving,old,367,new,1.79277300835,0,8,M,0.337285995483,4,,Children,,,,0
6,chick.png,living,old,368,old,1.35839295387,1,8,M,0.186694145203,4,,Children,,,1,
6,shield_antique.png,nonliving,old,369,old,1.55878686905,1,8,M,0.186835050583,4,,Children,,,1,
6,coin.jpg,nonliving,old,370,old,2.16026592255,1,8,M,0.267575025558,4,,Children,,,1,
6,plate_ceramic.png,nonliving,old,371,old,0.973912000656,1,8,M,0.320665121078,4,,Children,,,1,
6,snow shoes.png,nonliving,old,372,new,1.1911110878,0,8,M,0.236949920654,4,,Children,,,,0
6,archery.jpg,nonliving,old,373,old,1.70921802521,1,8,M,0.186881065369,4,,Children,,,1,
6,hat_tuque.png,nonliving,old,374,new,1.2580280304,0,8,M,0.250702857971,4,,Children,,,,0
6,diaper changing station.png,nonliving,old,375,old,1.0068128109,1,8,M,0.183854818344,4,,Children,,,1,
6,cane.png,nonliving,old,377,old,0.957851886749,1,8,M,0.270437002182,4,,Children,,,1,
6,hanger.png,nonliving,old,378,old,2.81224703789,1,8,M,0.167292833328,4,,Children,,,1,
6,beaver.jpg,living,old,379,new,1.80950284004,0,8,M,0.136677026749,4,,Children,,,,0
6,cheeseGouda.png,nonliving,old,380,old,1.99344491959,1,8,M,0.354014158249,4,,Children,,,1,
6,number_3.png,nonliving,old,381,old,1.10736083984,1,8,M,0.270498991013,4,,Children,,,1,
6,bat_baseball.png,nonliving,old,383,old,1.17418694496,1,8,M,0.771830797195,1,,Children,,,,
6,headphones.png,nonliving,old,384,old,3.8652009964,1,8,M,0.203839063644,4,,Children,,,1,
6,ghost.png,nonliving,old,385,old,1.50866389275,1,8,M,0.203577041626,4,,Children,,,1,
6,lawnmower.png,nonliving,old,387,old,1.1585290432,1,8,M,0.487617015839,4,,Children,,,1,
6,mask_hockeygoalie.png,nonliving,old,389,old,2.92905116081,1,8,M,0.537873029709,4,,Children,,,1,
6,watercooler.png,nonliving,old,390,new,1.3552479744,0,8,M,0.370698213577,4,,Children,,,,0
6,sled.png,nonliving,old,392,old,9.11276602745,1,8,M,0.0500929355621,4,,Children,,,1,
6,bicycle.png,nonliving,old,393,new,1.45854592323,0,8,M,0.354502916336,4,,Children,,,,0
6,fuzzydice.jpg,nonliving,old,394,new,1.45555496216,0,8,M,1.69097709656,2,,Children,,,,0
6,goggles_swim.png,nonliving,old,396,old,1.69248390198,1,8,M,0.300828933716,1,,Children,,,,
6,ball_8.png,nonliving,old,397,old,1.80960488319,1,8,M,0.320613861084,4,,Children,,,1,
6,bed.png,nonliving,old,398,old,1.55865502357,1,8,M,0.537833929062,4,,Children,,,1,
6,tray_icecube.png,nonliving,old,399,new,1.77581596375,0,8,M,0.203646183014,4,,Children,,,,0
6,camera_security.png,nonliving,old,401,old,1.62562608719,1,8,M,0.368052005768,4,,Children,,,1,
6,dresser.png,nonliving,old,402,old,1.1574280262,1,8,M,0.253679990768,4,,Children,,,1,
6,mask_black.png,nonliving,old,403,old,1.40847420692,1,8,M,1.50718784332,4,,Children,,,1,
6,glasses_sun.png,nonliving,old,404,old,3.14637804031,1,8,M,1.32431101799,4,,Children,,,1,
6,toyStroller.jpg,nonliving,old,405,old,1.19126605988,1,8,M,0.704968929291,4,,Children,,,1,
6,eyeMask.jpg,nonliving,old,407,old,9.17660593987,1,8,M,3.56268811226,4,,Children,,,1,
6,cookiecutter_bell.png,nonliving,old,408,old,1.49194383621,1,8,M,0.288101196289,4,,Children,,,1,
6,toy_alien.jpg,nonliving,old,409,old,1.20759797096,1,8,M,0.317455053329,4,,Children,,,1,
6,dart.jpg,nonliving,old,410,old,1.52612686157,1,8,M,0.320899963379,4,,Children,,,1,
6,hairband.png,nonliving,old,411,new,1.30823683739,0,8,M,0.351079940796,4,,Children,,,,0
6,ribbon.jpg,nonliving,old,412,new,1.82623910904,0,8,M,0.270554065704,4,,Children,,,,0
6,diving_board.jpg,nonliving,old,414,new,1.4920539856,0,8,M,0.186966180801,4,,Children,,,,0
6,poles_ski.png,nonliving,old,417,old,11.6004230976,1,8,M,1.08938908577,1,,Children,,,,
6,barrel.png,nonliving,old,418,old,1.92624306679,1,8,M,0.387520074844,4,,Children,,,1,
6,boxtruck.png,nonliving,old,419,old,1.57525110245,1,8,M,0.303965091705,4,,Children,,,1,
6,smokingpipe.png,nonliving,old,420,old,1.05696392059,1,8,M,0.37084197998,4,,Children,,,1,
6,chain_rusty.png,nonliving,old,421,old,1.3585460186,1,8,M,0.337121963501,4,,Children,,,1,
6,lightbulb.png,nonliving,old,422,new,1.32483696938,0,8,M,0.688303947449,2,,Children,,,,0
6,lynx.png,living,old,423,old,3.79808807373,1,8,M,0.484657049179,3,,Children,,,1,
7,bus_doubledecker.png,nonliving,old,1,old,2.57513618469,1,8,F,3.64635705948,4,,Children,,,1,
7,pylonTraffic.jpg,nonliving,old,2,old,2.06019711494,1,8,F,2.52361822128,2,,Children,,,,
7,chest_toys.png,nonliving,old,3,old,2.44456601143,1,8,F,1.21993803978,4,,Children,,,1,
7,brush_makeup.png,nonliving,old,5,old,1.87648010254,1,8,F,0.186933994293,4,,Children,,,1,
7,brush_paint.png,nonliving,old,7,old,2.3776948452,1,8,F,1.55740690231,2,,Children,,,,
7,tire_car.png,nonliving,old,8,old,2.94558095932,1,8,F,1.79133415222,4,,Children,,,1,
7,lipstick.png,nonliving,old,9,old,2.72856998444,1,8,F,0.354097127914,4,,Children,,,1,
7,fuzzydice.jpg,nonliving,old,10,old,1.72615718842,1,8,F,0.67157793045,4,,Children,,,1,
7,television.png,nonliving,old,11,old,0.957376003265,1,8,F,0.604721069336,4,,Children,,,1,
7,poles_ski.png,nonliving,old,14,old,1.87633514404,1,8,F,0.337314844131,4,,Children,,,1,
7,socks_winter.png,nonliving,old,15,old,1.57553100586,1,8,F,0.337342977524,4,,Children,,,1,
7,tiger_white.png,living,old,16,old,2.19382405281,1,8,F,2.27604413033,2,,Children,,,,
7,dart.jpg,nonliving,old,17,old,2.25769114494,1,8,F,0.337332010269,4,,Children,,,1,
7,whistle.png,nonliving,old,19,old,3.2467238903,1,8,F,0.437560796738,4,,Children,,,1,
7,dog_leash.jpg,nonliving,old,21,old,2.2106180191,1,8,F,0.284103155136,4,,Children,,,1,
7,babybottle.jpg,nonliving,old,22,old,1.40848398209,1,8,F,0.571497917175,4,,Children,,,1,
7,eraser.png,nonliving,old,23,old,1.02401304245,1,8,F,0.568243026733,4,,Children,,,1,
7,firstAidKit.png,nonliving,old,25,old,1.709223032,1,8,F,0.671648025513,4,,Children,,,1,
7,flute_wooden.png,nonliving,old,27,old,3.16298913956,1,8,F,1.98864912987,2,,Children,,,,
7,bread_unleavened.png,nonliving,old,28,old,4.21606397629,1,8,F,0.504650115967,4,,Children,,,1,
7,pillow.png,nonliving,old,29,old,1.34146690369,1,8,F,0.26745891571,4,,Children,,,1,
7,soap.png,nonliving,old,33,old,1.75959610939,1,8,F,1.17317700386,4,,Children,,,1,
7,box_chocolate.png,nonliving,old,34,old,1.8095369339,1,8,F,1.20326900482,4,,Children,,,1,
7,chalkboarderaser.png,nonliving,old,36,old,1.72574400902,1,8,F,0.387570142746,4,,Children,,,1,
7,puzzlepiece.png,nonliving,old,37,new,1.70929288864,0,8,F,0.705090999603,4,,Children,,,,0
7,kite.png,nonliving,old,39,old,1.3718931675,1,8,F,0.604814052582,4,,Children,,,1,
7,paddle.png,nonliving,old,40,old,5.68677091599,1,8,F,1.90510821342,2,,Children,,,,
7,trophy_man.png,nonliving,old,41,old,2.54493904114,1,8,F,0.354017019272,4,,Children,,,1,
7,lightbulb.png,nonliving,old,42,new,1.94318008423,0,8,F,0.186969995499,4,,Children,,,,0
7,birdhouse.png,nonliving,old,43,old,3.28036999702,1,8,F,1.08948683739,4,,Children,,,1,
7,scissors.png,nonliving,old,44,old,1.42505407333,1,8,F,0.38752913475,4,,Children,,,1,
7,candy.png,nonliving,old,45,old,1.05751609802,1,8,F,0.58802986145,4,,Children,,,1,
7,cup.jpg,nonliving,old,46,old,2.076608181,1,8,F,0.588207960129,4,,Children,,,1,
7,bug_ladybug.png,living,old,47,old,2.22413611412,1,8,F,1.08632707596,2,,Children,,,,
7,bagel.png,nonliving,old,48,old,2.87564396858,1,8,F,0.254111051559,2,,Children,,,,
7,plasticChairGreen.jpg,nonliving,old,49,new,2.26135802269,0,8,F,0.170168161392,4,,Children,,,,0
7,yarn_ball.png,nonliving,old,51,old,1.39192700386,1,8,F,0.133682012558,2,,Children,,,,
7,glassBall.jpg,nonliving,old,53,old,1.94350218773,1,8,F,4.7295229435,4,,Children,,,1,
7,wallet_blackleather.png,nonliving,old,54,old,2.22726297379,1,8,F,0.621440172195,4,,Children,,,1,
7,oldBook.png,nonliving,old,55,old,1.00747895241,1,8,F,0.0197927951813,4,,Children,,,1,
7,floortile.png,nonliving,old,56,old,0.953793048859,1,8,F,0.0198030471802,4,,Children,,,1,
7,hat_tuque.png,nonliving,old,57,new,1.91006422043,0,8,F,0.0866231918335,4,,Children,,,,0
7,cookiecutter_bell.png,nonliving,old,58,old,2.07686281204,1,8,F,0.601692914963,3,,Children,,,1,
7,trafficlight.png,nonliving,old,60,old,1.7927570343,1,8,F,0.638690948486,2,,Children,,,,
7,mop.png,nonliving,old,65,old,2.54480099678,1,8,F,1.42405319214,3,,Children,,,1,
7,soap_bottle.png,nonliving,old,67,old,1.90982508659,1,8,F,0.738368034363,3,,Children,,,1,
7,watercooler.png,nonliving,old,68,old,1.62260007858,1,8,F,0.454389095306,3,,Children,,,1,
7,fork.png,nonliving,old,69,old,0.940417051315,1,8,F,0.30388712883,3,,Children,,,1,
7,escalator.png,nonliving,old,70,old,0.840174913406,1,8,F,0.303982019424,3,,Children,,,1,
7,toy_jack-in-the-box.jpg,nonliving,old,71,old,0.739945888519,1,8,F,0.367650032043,3,,Children,,,1,
7,toy_alien.jpg,nonliving,old,73,old,2.76216578484,1,8,F,0.233973026276,3,,Children,,,1,
7,chair_deck.png,nonliving,old,74,new,1.44184279442,0,8,F,0.454389810562,3,,Children,,,,0
7,firehydrant.png,nonliving,old,75,new,1.59244894981,0,8,F,0.320358037949,3,,Children,,,,0
7,coin.jpg,nonliving,old,77,old,2.39136505127,1,8,F,0.32071185112,2,,Children,,,,
7,clock_digital.png,nonliving,old,78,old,1.37494301796,1,8,F,0.755618095398,3,,Children,,,1,
7,notebook_black.png,nonliving,old,80,old,3.66471099854,1,8,F,3.26194596291,2,,Children,,,,
7,pictureframe.png,nonliving,old,81,new,1.67583703995,0,8,F,0.537894964218,3,,Children,,,,0
7,skates.png,nonliving,old,83,old,1.07416582108,1,8,F,0.387688159943,3,,Children,,,1,
7,figurine_ballerina.jpg,nonliving,old,84,old,1.37488293648,1,8,F,0.370810985565,3,,Children,,,1,
7,space shuttle.png,nonliving,old,86,new,2.6114218235,0,8,F,0.17015004158,2,,Children,,,,0
7,backpack.png,nonliving,old,87,old,1.72598910332,1,8,F,0.905535936356,3,,Children,,,1,
7,saw.png,nonliving,old,90,old,1.42209815979,1,8,F,0.069943189621,3,,Children,,,1,
7,bed.png,nonliving,old,91,old,1.2243950367,1,8,F,0.103418111801,3,,Children,,,1,
7,stroller.png,nonliving,old,93,old,1.2411210537,1,8,F,0.30385684967,3,,Children,,,1,
7,horse.png,living,old,94,old,3.54758191109,1,8,F,0.92215514183,2,,Children,,,,
7,smokingpipe.png,nonliving,old,95,old,1.374792099,1,8,F,0.170315027237,3,,Children,,,1,
7,lawnmower.png,nonliving,old,97,old,2.56153988838,1,8,F,1.01938605309,3,,Children,,,1,
7,goggles_swim.png,nonliving,old,99,old,1.29152679443,1,8,F,3.14505386353,3,,Children,,,1,
7,babysocks.png,nonliving,old,100,old,2.15709781647,1,8,F,0.651767015457,3,,Children,,,1,
7,guineaPig.png,living,old,101,new,7.05719590187,0,8,F,1.00580716133,3,,Children,,,,0
7,hose_garden.png,nonliving,old,103,old,1.30821299553,1,8,F,0.0699949264526,3,,Children,,,1,
7,basketballhoop.png,nonliving,old,104,new,1.94325113297,0,8,F,1.62411785126,3,,Children,,,,0
7,giraffe.png,living,old,105,new,1.34170007706,0,8,F,0.13676404953,3,,Children,,,,0
7,checkers_board.jpg,nonliving,old,106,new,1.79283308983,0,8,F,0.236860990524,3,,Children,,,,0
7,tickets.png,nonliving,old,107,old,1.82314801216,1,8,F,0.370774030685,3,,Children,,,1,
7,dust_pan.png,nonliving,old,108,new,2.34403896332,0,8,F,0.387521028519,3,,Children,,,,0
7,toilet.png,nonliving,old,109,new,2.44427919388,0,8,F,0.136765956879,3,,Children,,,,0
7,bucket_halloween.jpg,nonliving,old,110,old,4.46678781509,1,8,F,1.44035792351,3,,Children,,,1,
7,laces.jpg,nonliving,old,111,old,1.14075398445,1,8,F,0.718735933304,3,,Children,,,1,
7,toolkit_open.png,nonliving,old,112,old,1.24149489403,1,8,F,0.300827980042,3,,Children,,,1,
7,sled.png,nonliving,old,113,old,1.0913131237,1,8,F,0.337332963943,3,,Children,,,1,
7,comb.png,nonliving,old,115,old,1.94014716148,1,8,F,0.721676111221,3,,Children,,,1,
7,cashregister.png,nonliving,old,116,new,1.59244918823,0,8,F,0.487854003906,3,,Children,,,,0
7,mug.png,nonliving,old,118,old,2.79549407959,1,8,F,1.49061703682,3,,Children,,,1,
7,ball_8.png,nonliving,old,119,old,1.25798487663,1,8,F,0.752007007599,3,,Children,,,1,
7,tricycle.png,nonliving,old,120,new,2.52504396439,0,8,F,1.10295200348,3,,Children,,,,0
7,wreath.png,nonliving,old,121,old,1.40813803673,1,8,F,0.52118897438,3,,Children,,,1,
7,inukshuk.png,nonliving,old,122,old,1.40515184402,1,8,F,0.788546085358,3,,Children,,,1,
7,gloves_winter.png,nonliving,old,123,new,2.92903399467,0,8,F,0.103434085846,3,,Children,,,,0
7,chipmunk.jpg,living,old,125,new,2.76210999489,0,8,F,0.0700778961182,3,,Children,,,,0
7,ruler_triangle.png,nonliving,old,126,old,1.58923316002,1,8,F,0.467933177948,3,,Children,,,1,
7,hammer.png,nonliving,old,127,new,1.65933895111,0,8,F,1.40687298775,3,,Children,,,,0
7,dog_food.png,nonliving,old,128,old,1.50869703293,1,8,F,0.117057085037,3,,Children,,,1,
7,boxtruck.png,nonliving,old,129,old,2.71210312843,1,8,F,1.9554040432,2,,Children,,,,
7,hyaena.jpg,living,old,130,old,4.01558303833,1,8,F,0.203639030457,3,,Children,,,1,
7,bottle_spray.jpg,nonliving,old,131,new,1.57557702065,0,8,F,0.337514877319,3,,Children,,,,0
7,cheeseGouda.png,nonliving,old,133,old,1.50863289833,1,8,F,0.471066951752,3,,Children,,,1,
7,ghost.png,nonliving,old,134,old,1.50868487358,1,8,F,0.0501399040222,3,,Children,,,1,
7,pitcher_plastic.png,nonliving,old,135,new,2.14380216599,0,8,F,0.6547498703,3,,Children,,,,0
7,hat_hard.png,nonliving,old,136,old,2.79557514191,1,8,F,0.0366189479828,2,,Children,,,,
7,bugle.png,nonliving,old,137,new,1.94347119331,0,8,F,0.735318899155,3,,Children,,,,0
7,key_car.png,nonliving,old,138,new,1.75939798355,0,8,F,1.95852994919,3,,Children,,,,0
7,ladder.png,nonliving,old,139,old,1.67581892014,1,8,F,1.00580501556,3,,Children,,,1,
7,candycane.jpg,nonliving,old,141,old,3.64780306816,1,8,F,0.0197801589966,3,,Children,,,1,
7,shoe_sneaker.png,nonliving,old,142,new,2.00710606575,0,8,F,0.721730947495,3,,Children,,,,0
7,cake_cheese.png,nonliving,old,143,new,2.56155991554,0,8,F,0.0197279453278,3,,Children,,,,0
7,doghouse.png,nonliving,old,145,new,1.79277801514,0,8,F,0.133678913116,3,,Children,,,,0
7,gazebo_wooden.png,nonliving,old,147,new,1.34156107903,0,8,F,0.237046003342,3,,Children,,,,0
7,giftbow01.png,nonliving,old,148,old,1.77619886398,1,8,F,0.320513010025,3,,Children,,,1,
7,qtip.png,nonliving,old,149,old,4.18277096748,1,8,F,0.287076950073,3,,Children,,,1,
7,bowtie.jpg,nonliving,old,150,old,1.45546889305,1,8,F,0.337277889252,3,,Children,,,1,
