participant,trialNo,stimulus,classifyEnc,classifyMemory,choiceMemory,rt,acc,age,ratingRT,ratingConfidence
4,1,archery.jpg,nonliving,old,old,1.09054708481,1,9,,4
4,2,noisemaker.jpg,nonliving,old,old,1.22421789169,1,9,,4
4,3,clothespin.jpg,nonliving,old,old,0.772959947586,1,9,,3
4,4,snorkle.jpg,nonliving,new,old,0.889971017838,0,9,,1
4,5,brush_makeup.png,nonliving,new,new,2.52812695503,1,9,,2
4,6,saw.png,nonliving,old,old,1.6389811039,1,9,,1
4,7,tricycle.png,nonliving,old,old,1.29102778435,1,9,,4
4,8,stroller.png,nonliving,old,old,0.973465919495,1,9,,4
4,9,tap_bathroom.jpg,nonliving,old,old,4.31605386734,1,9,,4
4,10,ruler_triangle.png,nonliving,new,new,2.22682905197,1,9,,4
4,11,owl.png,living,new,new,1.37455296516,1,9,,3
4,12,squid.jpg,living,new,new,1.97619795799,1,9,,4
4,13,caterpillar_green.png,living,new,new,0.772971868515,1,9,,4
4,14,puppettheatre.png,nonliving,old,old,0.957020998001,1,9,,4
4,15,boots_hiking.png,nonliving,old,old,1.07352304459,1,9,,2
4,16,car_FerrariRed.jpg,nonliving,old,old,0.990319013596,1,9,,4
4,17,building_door.png,nonliving,old,old,1.04049491882,1,9,,4
4,18,goggles_swim.png,nonliving,old,old,1.62531399727,1,9,,4
4,19,diaper changing station.png,nonliving,old,old,1.17360806465,1,9,,4
4,20,penguin.png,living,old,old,1.67555999756,1,9,,4
4,21,shield_antique.png,nonliving,new,old,0.789826154709,0,9,,4
4,22,boot_rain.png,nonliving,old,old,1.00709986687,1,9,,4
4,23,tuxedo.jpg,nonliving,old,old,1.17330312729,1,9,,4
4,24,boar.png,living,new,new,1.20760393143,1,9,,4
4,25,cinnamonroll.png,nonliving,old,old,0.689275979996,1,9,,4
4,26,gum_pack.png,nonliving,old,old,0.639295101166,1,9,,3
4,27,whale.jpg,living,old,old,2.44413900375,1,9,,4
4,28,dust_pan.png,nonliving,old,old,0.839696884155,1,9,,4
4,29,cougar.png,living,old,old,0.94008898735,1,9,,3
4,30,pitcher_plastic.png,nonliving,new,old,0.672691822052,0,9,,1
4,31,playdoh.png,nonliving,old,new,2.19348597527,0,9,,2
4,32,fork.png,nonliving,old,old,0.789613962173,1,9,,4
4,33,gloves_winter.png,nonliving,old,old,0.990181922913,1,9,,3
4,34,flamingo.png,living,new,new,1.39121699333,1,9,,4
4,35,castle_sand.png,nonliving,old,old,1.08965086937,1,9,,4
4,36,skirt.jpg,nonliving,old,old,0.72260093689,1,9,,4
4,37,chain_rusty.png,nonliving,old,old,0.940284013748,1,9,,4
4,38,concreteblock.png,nonliving,old,old,0.889946937561,1,9,,4
4,39,hair_scrunchie.png,nonliving,old,old,0.739393949509,1,9,,4
4,40,1bear_polarbear.png,living,old,old,0.80651307106,1,9,,4
4,41,dragonfly.png,living,new,new,1.59188389778,1,9,,4
4,42,bench_park.png,nonliving,old,new,1.04055094719,0,9,,4
4,43,gametable_airhockey.png,nonliving,old,new,1.27427101135,0,9,,4
4,44,trafficlight.png,nonliving,new,new,0.773020982742,1,9,,4
4,45,handheldMirror.jpg,nonliving,old,old,0.889876127243,1,9,,3
4,46,doublebass.png,nonliving,old,new,0.722942113876,0,9,,3
4,47,pencil.png,nonliving,old,old,1.17401909828,1,9,,4
4,48,net_butterfly.jpg,nonliving,old,old,0.68928694725,1,9,,2
4,49,outhouse.png,nonliving,new,new,3.58066797256,1,9,,4
4,50,bumblebee.png,living,old,new,0.937148094177,0,9,,1
4,51,space shuttle.png,nonliving,new,new,1.47495007515,1,9,,3
4,52,cookiecutter_bell.png,nonliving,old,old,1.62526202202,1,9,,4
4,53,goat.png,living,new,new,2.0430431366,1,9,,4
4,54,shampoo.jpg,nonliving,old,old,1.12395691872,1,9,,4
4,55,bin_recycling.png,nonliving,old,new,1.23797893524,0,9,,3
4,56,turtle.png,living,old,old,1.64199900627,1,9,,4
4,57,kitchen sink.jpg,nonliving,new,old,5.26854610443,0,9,,2
4,58,chipmunk.jpg,living,new,new,2.49141311646,1,9,,3
4,59,watercooler.png,nonliving,old,new,2.59172391891,0,9,,4
4,60,inukshuk.png,nonliving,old,old,1.07375788689,1,9,,4
4,61,milk_shake.jpg,nonliving,new,new,2.79193401337,1,9,,3
4,62,perfume.png,nonliving,old,old,1.17401981354,1,9,,4
4,63,pacifier.png,nonliving,old,old,1.37453103065,1,9,,4
4,64,cup.jpg,nonliving,old,old,1.2575480938,1,9,,4
4,65,wolf.png,living,old,old,0.836926937103,1,9,,4
4,66,toy_alien.jpg,nonliving,old,old,0.889847993851,1,9,,4
4,67,swan.png,living,old,old,0.839760065079,1,9,,4
4,68,lollipop.png,nonliving,old,old,2.47754502296,1,9,,4
4,69,scissors.png,nonliving,new,old,0.73948097229,0,9,,1
4,70,laces.jpg,nonliving,old,old,1.54176902771,1,9,,4
4,71,trophy_man.png,nonliving,old,new,2.96212410927,0,9,,3
4,72,sheep.jpg,living,new,new,1.97612595558,1,9,,4
4,73,sphinx.png,nonliving,old,old,1.13787508011,1,9,,4
4,74,ship_battle.png,nonliving,old,old,1.12381196022,1,9,,4
4,75,stapler.png,nonliving,old,old,1.13723111153,1,9,,4
4,76,oldBook.png,nonliving,old,new,1.99304103851,0,9,,4
4,77,lynx.png,living,old,new,1.48868989944,0,9,,4
4,78,pencilCase.png,nonliving,new,new,1.29101800919,1,9,,4
4,79,bus_doubledecker.png,nonliving,new,new,1.35791301727,1,9,,4
4,80,coin.jpg,nonliving,old,old,1.12374591827,1,9,,4
4,81,toy_jack-in-the-box.jpg,nonliving,old,old,0.823054075241,1,9,,4
4,82,bucket_antique.png,nonliving,new,new,0.937439918518,1,9,,4
4,83,iguana.png,living,old,old,1.05704188347,1,9,,4
4,84,key_car.png,nonliving,new,new,1.0875658989,1,9,,4
4,85,barrel.png,nonliving,old,new,1.60856413841,0,9,,4
4,86,stick_ice hockey.png,nonliving,old,old,0.840101003647,1,9,,4
4,87,bolt.png,nonliving,old,old,0.689432144165,1,9,,4
4,88,drainplug.png,nonliving,new,new,1.07374691963,1,9,,4
4,89,mask_black.png,nonliving,old,old,1.09052610397,1,9,,4
4,90,pliers.png,nonliving,old,old,2.17698502541,1,9,,3
4,91,microwave.png,nonliving,old,new,3.59437298775,0,9,,4
4,92,calculator.png,nonliving,old,old,1.04028296471,1,9,,4
4,93,butterfly.png,living,new,new,1.22442984581,1,9,,2
4,94,thermometer.png,nonliving,old,new,2.59451818466,0,9,,3
4,95,mousepad.png,nonliving,new,new,2.21021294594,1,9,,4
4,96,statue_head.png,nonliving,old,new,1.54161691666,0,9,,3
4,97,table_side.jpg,nonliving,old,new,0.589395046234,0,9,,4
4,98,dresser.png,nonliving,old,old,1.17427015305,1,9,,4
4,99,glassBall.jpg,nonliving,new,new,1.40813183784,1,9,,3
4,100,lock_combination.jpg,nonliving,old,old,0.906717061996,1,9,,4
4,101,television.png,nonliving,old,new,0.78968000412,0,9,,1
4,102,shrimp.png,nonliving,old,old,2.42741703987,1,9,,4
4,103,shirt_tshirt.png,nonliving,old,old,0.669841051102,1,9,,4
4,104,pan_muffin.png,nonliving,old,new,1.02356290817,0,9,,1
4,105,hot pad.jpg,nonliving,old,new,1.72265100479,0,9,,1
4,106,necklace_pearl.png,nonliving,old,old,1.17399287224,1,9,,4
4,107,fish_rockbass.png,living,old,old,1.09063005447,1,9,,4
4,108,mug.png,nonliving,old,old,1.85898017883,1,9,,4
4,109,bucket_halloween.jpg,nonliving,old,old,2.04012298584,1,9,,4
4,110,shelf_book.png,nonliving,old,new,0.99063205719,0,9,,3
4,111,cat.png,living,old,old,1.17111110687,1,9,,4
4,112,notebook_black.png,nonliving,old,new,1.74220085144,0,9,,4
4,113,hose_garden.png,nonliving,old,new,1.38835096359,0,9,,4
4,114,boxtruck.png,nonliving,old,old,0.823016166687,1,9,,3
4,115,hat_hard.png,nonliving,new,new,1.4252538681,1,9,,4
4,116,pajamas.png,nonliving,old,old,0.889985084534,1,9,,4
4,117,macaroni.png,nonliving,old,old,0.672592163086,1,9,,4
4,118,electricoutlet.png,nonliving,new,old,1.28819298744,0,9,,4
4,119,bottle_plasticwater.png,nonliving,old,old,1.34105396271,1,9,,3
4,120,ring_diamond.png,nonliving,old,old,1.13770294189,1,9,,4
4,121,cane.png,nonliving,old,old,1.39120793343,1,9,,1
4,122,motorcycle.png,nonliving,old,new,2.31058621407,0,9,,3
4,123,horn_french.png,nonliving,old,old,1.6586689949,1,9,,4
4,124,lionWalking.png,living,old,old,0.887209892273,1,9,,4
4,125,egg_easter.jpg,nonliving,old,old,0.689384937286,1,9,,4
4,126,fireextinguisher.jpg,nonliving,old,old,0.973478078842,1,9,,4
4,127,chair_deck.png,nonliving,old,old,1.39124798775,1,9,,4
4,128,drill.png,nonliving,old,new,1.45817399025,0,9,,3
4,129,poles_ski.png,nonliving,old,old,1.54184293747,1,9,,3
4,130,wateringcan.png,nonliving,old,old,1.59176778793,1,9,,4
4,131,mannequin.jpg,nonliving,old,old,0.636330127716,1,9,,4
4,132,elephant.png,living,new,new,1.42467689514,1,9,,3
4,133,ladder.png,nonliving,old,new,1.23789715767,0,9,,3
4,134,pailGarden.png,nonliving,new,new,1.34117698669,1,9,,3
4,135,dog_cockerspaniel.jpg,living,new,new,1.6724190712,1,9,,4
4,136,birdhouse.png,nonliving,old,new,1.82571005821,0,9,,3
4,137,bed.png,nonliving,old,old,1.27137899399,1,9,,4
4,138,street sweeper.png,nonliving,old,new,1.17406702042,0,9,,4
4,139,cake_cheese.png,nonliving,old,old,0.890244007111,1,9,,4
4,140,guineaPig.png,living,new,new,2.05961990356,1,9,,3
4,141,lifejacket.png,nonliving,old,old,0.890240907669,1,9,,4
4,142,bird_toucan.png,living,old,old,1.19080996513,1,9,,4
4,143,dog_toy.png,nonliving,old,old,0.840420007706,1,9,,4
4,144,bugle.png,nonliving,old,new,1.39134502411,0,9,,3
4,145,spoons_measuring.jpg,nonliving,old,old,0.890028953552,1,9,,4
4,146,rug.png,nonliving,old,old,1.04030203819,1,9,,4
4,147,crayon_green.png,nonliving,old,old,0.73943901062,1,9,,1
4,148,pictureframe.png,nonliving,old,old,0.839915990829,1,9,,3
4,149,hedgehog.png,living,new,new,1.42461299896,1,9,,3
4,150,pool_kiddie.png,nonliving,new,old,0.773313045502,0,9,,1
4,151,qtip.png,nonliving,old,old,3.4438970089,1,9,,3
4,152,paintcan.jpg,nonliving,old,new,2.69534111023,0,9,,4
4,153,camera_security.png,nonliving,new,new,0.605943918228,1,9,,4
4,154,clam.png,living,old,old,0.923377990723,1,9,,4
4,155,glove_baseball.png,nonliving,new,new,1.1073410511,1,9,,4
4,156,scooter.png,nonliving,old,new,1.55841183662,0,9,,1
4,157,helicopter.jpg,nonliving,old,old,3.79481601715,1,9,,4
4,158,boxingGloves.png,nonliving,old,old,1.02389287949,1,9,,4
4,159,clip_paper.png,nonliving,old,old,0.790871143341,1,9,,4
4,160,hoodieGray.jpg,nonliving,old,old,0.786719083786,1,9,,4
4,161,bug_ladybug.png,living,new,new,2.2944009304,1,9,,3
4,162,toy_slinky.png,nonliving,new,new,1.22146892548,1,9,,4
4,163,smokingpipe.png,nonliving,old,old,0.923387050629,1,9,,4
4,164,caribou.png,living,new,new,1.05710220337,1,9,,3
4,165,ram.png,living,new,new,1.15788292885,1,9,,4
4,166,Baby-Bunny-Wallpaper-Free-Download.png,living,old,new,1.83952689171,0,9,,3
4,167,camel.png,living,old,old,1.19092202187,1,9,,4
4,168,brush_paint.png,nonliving,old,old,0.924682855606,1,9,,4
4,169,giraffe.png,living,new,new,1.40853285789,1,9,,4
4,170,rolling pin.jpg,nonliving,old,old,1.12511181831,1,9,,4
4,171,bird_eagle 2.png,living,old,old,1.05480504036,1,9,,4
4,172,lobster.png,living,old,old,0.673271894455,1,9,,4
4,173,fuzzydice.jpg,nonliving,old,old,0.839996814728,1,9,,4
4,174,basket_straw.png,nonliving,old,new,1.29112887383,0,9,,3
4,175,ball_baseball.png,nonliving,old,new,1.35849690437,0,9,,3
4,176,ghost.png,nonliving,old,old,0.719937086105,1,9,,4
4,177,staircase.jpg,nonliving,old,old,1.02375102043,1,9,,4
4,178,ball_8.png,nonliving,old,old,0.789892196655,1,9,,4
4,179,stoveAntique.jpg,nonliving,old,new,0.873651027679,0,9,,4
4,180,flipflopsBlue.png,nonliving,new,new,1.05388784409,1,9,,4
4,181,clock_digital.png,nonliving,old,old,0.854271888733,1,9,,4
4,182,weights.png,nonliving,old,old,1.62528300285,1,9,,4
4,183,megaphone.png,nonliving,old,old,3.63106298447,1,9,,4
4,184,zebra.jpg,living,new,new,0.873739004135,1,9,,3
4,185,cow.png,living,new,new,0.773195981979,1,9,,4
4,186,seahorse.png,living,old,old,0.924164056778,1,9,,4
4,187,whisk_electric.jpg,nonliving,old,old,1.07399296761,1,9,,4
4,188,plunger.png,nonliving,old,new,1.97647619247,0,9,,4
4,189,mask_hockeygoalie.png,nonliving,old,old,1.30805301666,1,9,,4
4,190,ostrich.jpg,living,new,new,1.80957603455,1,9,,4
4,191,tiara.png,nonliving,old,old,0.890120983124,1,9,,4
4,192,playground.png,nonliving,old,new,1.7762260437,0,9,,3
4,193,spiderweb.png,nonliving,old,old,1.19083595276,1,9,,4
4,194,hairband.png,nonliving,old,old,0.987334012985,1,9,,3
4,195,teabag.jpg,nonliving,old,old,2.71226978302,1,9,,4
4,196,dog_bulldog.jpg,living,new,new,2.71173715591,1,9,,4
4,197,guitar_electric.png,nonliving,old,new,1.39124488831,0,9,,4
4,198,sandwich_egg.png,nonliving,old,old,0.94002699852,1,9,,4
4,199,hat_tuque.png,nonliving,old,old,0.605836868286,1,9,,4
4,200,figurine_ballerina.jpg,nonliving,old,old,1.0708220005,1,9,,4
4,201,chips.png,nonliving,old,old,1.09045505524,1,9,,4
4,202,toyStroller.jpg,nonliving,old,new,2.1571688652,0,9,,3
4,203,pretzel.png,nonliving,old,old,0.739533185959,1,9,,4
4,204,wreath.png,nonliving,old,new,0.923578023911,0,9,,4
4,205,bathtub.png,nonliving,old,new,1.02382302284,0,9,,4
4,206,antlerheadband.png,nonliving,old,old,0.656096935272,1,9,,4
4,207,ambulance.png,nonliving,new,new,1.75935983658,1,9,,4
4,208,cautionSignFrench.png,nonliving,old,old,0.973433971405,1,9,,4
4,209,bean bag chair.png,nonliving,old,old,0.78965306282,1,9,,4
4,210,watergun.png,nonliving,old,old,1.04034209251,1,9,,4
4,211,paper towel.jpg,nonliving,old,new,1.02406716347,0,9,,4
4,212,yarn_ball.png,nonliving,old,old,1.37471485138,1,9,,4
4,213,drum_set.png,nonliving,old,new,2.07625508308,0,9,,4
4,214,lizard.png,living,old,new,1.48878097534,0,9,,4
4,215,kangaroo.png,living,old,old,1.67563986778,1,9,,3
4,216,slide_children.png,nonliving,old,new,2.04298615456,0,9,,4
4,217,tire_car.png,nonliving,old,old,1.10753202438,1,9,,4
4,218,lipstick.png,nonliving,new,new,1.4885699749,1,9,,3
4,219,coffeepot.png,nonliving,old,new,1.22416496277,0,9,,4
4,220,grasshopper.png,living,old,old,1.39142107964,1,9,,4
4,221,englishmuffin.png,nonliving,old,old,1.02362895012,1,9,,4
4,222,teapot.png,nonliving,old,new,2.26051712036,0,9,,3
4,223,hammer.png,nonliving,old,new,3.61405897141,0,9,,4
4,224,fryingpan.png,nonliving,old,old,1.02351498604,1,9,,4
4,225,water well.png,nonliving,old,old,0.940201997757,1,9,,4
4,226,bells_christmas.png,nonliving,old,old,3.53087878227,1,9,,4
4,227,cloud.png,nonliving,old,old,3.96504306793,1,9,,4
4,228,globe.png,nonliving,old,old,1.09052491188,1,9,,4
4,229,paddle ball.jpg,nonliving,old,old,1.17315912247,1,9,,4
4,230,soap.png,nonliving,old,old,1.80906796455,1,9,,4
4,231,pencilsharpener.png,nonliving,old,old,1.09060692787,1,9,,4
4,232,bowling pin.png,nonliving,old,old,0.789599180222,1,9,,4
4,233,wheel barrow.png,nonliving,old,new,1.32465100288,0,9,,3
4,234,1bird_canadiangoose.jpg,living,new,new,1.43847203255,1,9,,3
4,235,umbrella.png,nonliving,old,old,1.04030418396,1,9,,4
4,236,shears_garden.jpg,nonliving,old,new,1.1072781086,0,9,,3
4,237,bowl_cereal.png,nonliving,old,old,3.16262507439,1,9,,4
4,238,goldnugget.png,nonliving,old,old,0.873054981232,1,9,,4
4,239,earrings_dangling.jpg,nonliving,old,old,0.806221961975,1,9,,3
4,240,dog_food.png,nonliving,old,new,1.0069770813,0,9,,3
4,241,plasticChairGreen.jpg,nonliving,new,new,1.25768589973,1,9,,4
4,242,lawnmower.png,nonliving,old,old,1.14055800438,1,9,,4
4,243,watercolorpaintset.png,nonliving,new,new,1.17420887947,1,9,,4
4,244,bandage.jpg,nonliving,old,old,0.987291812897,1,9,,4
4,245,spotlight.png,nonliving,old,new,1.59187412262,0,9,,3
4,246,rollerblade.png,nonliving,old,old,0.956842184067,1,9,,4
4,247,whistle.png,nonliving,old,new,2.21018910408,0,9,,3
4,248,lightbulb.png,nonliving,old,old,3.56394386292,1,9,,3
4,249,giftbow01.png,nonliving,old,old,0.739535808563,1,9,,4
4,250,knife_butter.png,nonliving,old,old,0.656054019928,1,9,,4
4,251,puzzlepiece.png,nonliving,old,old,0.923326969147,1,9,,4
4,252,bread_unleavened.png,nonliving,old,old,1.35837888718,1,9,,4
4,253,plain_rice.jpg,nonliving,old,old,1.29093885422,1,9,,4
4,254,sundae_banana.png,nonliving,old,old,0.940360784531,1,9,,4
4,255,shoe_sneaker.png,nonliving,old,new,1.45824718475,0,9,,4
4,256,donutFloaty.png,nonliving,old,new,3.61419415474,0,9,,3
4,257,partyDress.png,nonliving,old,new,1.49145913124,0,9,,4
4,258,candle.png,nonliving,old,old,1.0240688324,1,9,,4
4,259,hyaena.jpg,living,new,new,1.07105612755,1,9,,4
4,260,firehydrant.png,nonliving,new,new,0.873188972473,1,9,,4
4,261,babybottle.jpg,nonliving,old,old,0.923228025436,1,9,,4
4,262,panda.jpg,living,new,new,1.12434887886,1,9,,4
4,263,starfish.png,living,old,old,1.18755817413,1,9,,4
4,264,paddle_bread.png,nonliving,old,new,1.08747386932,0,9,,4
4,265,kite.png,nonliving,old,new,1.14072918892,0,9,,3
4,266,snow shoes.png,nonliving,old,old,1.12377500534,1,9,,4
4,267,bat_baseball.png,nonliving,old,new,1.1410548687,0,9,,3
4,268,wirebeadmaze.png,nonliving,old,old,1.50839304924,1,9,,3
4,269,toolkit_open.png,nonliving,new,new,1.17411708832,1,9,,3
4,270,sled.png,nonliving,old,new,2.21013402939,0,9,,4
4,271,notepad.jpg,nonliving,new,new,1.37468481064,1,9,,4
4,272,swing set.jpg,nonliving,old,old,1.00695300102,1,9,,4
4,273,toad.png,living,new,new,1.00395202637,1,9,,4
4,274,compass.png,nonliving,old,old,0.870252132416,1,9,,4
4,275,worldmap.png,nonliving,old,old,1.22430086136,1,9,,4
4,276,chalkboarderaser.png,nonliving,old,old,0.772990942001,1,9,,4
4,277,chick.png,living,old,old,0.873352050781,1,9,,4
4,278,doorbolt.png,nonliving,new,new,0.973732948303,1,9,,4
4,279,mitten.png,nonliving,old,new,1.27415895462,0,9,,4
4,280,binoculars.png,nonliving,old,old,1.3078558445,1,9,,3
4,281,number_3.png,nonliving,old,old,1.25764107704,1,9,,4
4,282,windowblinds.png,nonliving,new,new,1.07081985474,1,9,,4
4,283,glueGun.jpg,nonliving,old,old,0.906645774841,1,9,,4
4,284,paddle.png,nonliving,old,old,3.32982397079,1,9,,4
4,285,bagel.png,nonliving,old,old,0.906527996063,1,9,,4
4,286,dryingmachine02.png,nonliving,old,new,0.873269081116,0,9,,4
4,287,toothpaste.png,nonliving,old,new,1.12379693985,0,9,,4
4,288,cookie_jar.jpg,nonliving,new,new,1.04039597511,1,9,,4
4,289,fish_swordfish.png,living,new,new,1.17331504822,1,9,,4
4,290,squirrel.jpg,living,new,new,1.20760607719,1,9,,4
4,291,gun_nerf.jpg,nonliving,old,old,0.872961997986,1,9,,4
4,292,macaque.png,living,old,old,0.839762926102,1,9,,4
4,293,gazebo_wooden.png,nonliving,new,new,1.32446289062,1,9,,4
4,294,vaseDecorativeOriental.jpg,nonliving,old,new,1.30784106255,0,9,,4
4,295,ice cubes.png,nonliving,old,old,2.37732100487,1,9,,4
4,296,toy_truck.jpg,nonliving,old,new,1.27473807335,0,9,,4
4,297,comb.png,nonliving,new,new,1.77246284485,1,9,,4
4,298,bib.png,nonliving,old,old,0.85653090477,1,9,,3
4,299,candycane.jpg,nonliving,old,old,2.29369497299,1,9,,4
4,300,flute_wooden.png,nonliving,old,old,2.10992217064,1,9,,4
4,301,pig.png,living,new,new,6.15134620667,1,9,,4
4,302,grillGas.jpg,nonliving,new,new,1.0207400322,1,9,,4
4,303,magnifyingglass.png,nonliving,old,new,1.29108095169,0,9,,3
4,304,pyramid.png,nonliving,new,new,1.17283201218,1,9,,4
4,305,statue_metal_man.jpg,nonliving,new,new,3.31347703934,1,9,,4
4,306,ribbon.jpg,nonliving,old,old,4.29926085472,1,9,,4
4,307,pirateflag.jpg,nonliving,old,new,1.15658593178,0,9,,4
4,308,pen.png,nonliving,old,old,1.37468886375,1,9,,4
4,309,tablePingPong.jpg,nonliving,new,new,1.15663194656,1,9,,4
4,310,mouse.jpg,living,old,new,3.43022608757,0,9,,3
4,311,escalator.png,nonliving,old,new,1.39128398895,0,9,,4
4,312,tape.png,nonliving,new,new,1.12423706055,1,9,,4
4,313,pants_firefighter.jpg,nonliving,old,new,0.87319111824,0,9,,4
4,314,bicycle.png,nonliving,new,new,2.09330892563,1,9,,4
4,315,headphones.png,nonliving,old,old,0.92341709137,1,9,,4
4,316,balloon.jpg,nonliving,old,old,3.14617800713,1,9,,4
4,317,crab.png,living,old,old,0.870025873184,1,9,,4
4,318,rope_skipping.png,nonliving,old,old,0.856772899628,1,9,,4
4,319,sink.png,nonliving,old,old,0.923290014267,1,9,,4
4,320,toothbrush.png,nonliving,new,old,0.823143959045,0,9,,1
4,321,razor.png,nonliving,old,new,10.5663909912,0,9,,4
4,322,loofah.png,nonliving,old,old,1.30753803253,1,9,,4
4,323,quartz.png,nonliving,old,old,0.839848041534,1,9,,4
4,324,carton_eggs.png,nonliving,old,old,1.75902795792,1,9,,4
4,325,hat_party.png,nonliving,new,new,1.25780701637,1,9,,4
4,326,pants.png,nonliving,old,old,1.34116816521,1,9,,4
4,327,towel.png,nonliving,old,old,1.35490012169,1,9,,4
4,328,watch.png,nonliving,old,new,2.04308009148,0,9,,4
4,329,pylonTraffic.jpg,nonliving,old,old,1.1740231514,1,9,,4
4,330,floortile.png,nonliving,old,new,1.12401604652,0,9,,3
4,331,candy.png,nonliving,old,old,1.27145195007,1,9,,4
4,332,handbag.png,nonliving,old,old,0.90661406517,1,9,,4
4,333,piano_keyboard.png,nonliving,old,old,2.91221499443,1,9,,3
4,334,babysocks.png,nonliving,old,old,1.42484211922,1,9,,4
4,335,hairdryer.png,nonliving,old,old,3.66433310509,1,9,,2
4,336,croissant.png,nonliving,old,old,0.873224020004,1,9,,4
4,337,potFlowerClay.png,nonliving,old,new,1.47503805161,0,9,,4
4,338,soap_bottle.png,nonliving,old,old,1.05730485916,1,9,,4
4,339,candydispenser.png,nonliving,old,old,0.772910118103,1,9,,4
4,340,diving_board.jpg,nonliving,old,old,0.856612205505,1,9,,4
4,341,toilet.png,nonliving,new,new,1.05740904808,1,9,,4
4,342,cheeseGouda.png,nonliving,old,old,1.02372097969,1,9,,4
4,343,arch.png,nonliving,old,old,2.77836203575,1,9,,3
4,344,package.png,nonliving,old,old,0.903748035431,1,9,,4
4,345,cake_wedding.png,nonliving,old,old,0.772941827774,1,9,,4
4,346,button_plastic.png,nonliving,old,old,0.956918954849,1,9,,4
4,347,cashregister.png,nonliving,old,old,1.05699205399,1,9,,4
4,348,doghouse.png,nonliving,old,old,8.19324088097,1,9,,1
4,349,napkin_ring.png,nonliving,old,old,1.02372193336,1,9,,4
4,350,beaver.jpg,living,old,old,6.08749699593,1,9,,3
4,351,boat.png,nonliving,old,new,2.96230792999,0,9,,3
4,352,drinkingfountain.png,nonliving,old,new,1.63913083076,0,9,,4
4,353,snow globe.png,nonliving,old,old,1.15418314934,1,9,,4
4,354,remotecontrol.png,nonliving,old,old,0.770005941391,1,9,,4
4,355,costume_wizard.jpg,nonliving,old,old,3.53037500381,1,9,,4
4,356,walkitalkie.png,nonliving,old,new,1.15726685524,0,9,,4
4,357,oven.png,nonliving,new,new,0.956941843033,1,9,,4
4,358,glasses_sun.png,nonliving,old,old,1.02060008049,1,9,,4
4,359,radioclock.jpg,nonliving,old,new,4.37979793549,0,9,,4
4,360,waterfountain.png,nonliving,old,new,1.22425103188,0,9,,3
4,361,giftbox.jpg,nonliving,old,old,2.42724204063,1,9,,4
4,362,tissuebox.png,nonliving,old,new,9.12919306755,0,9,,4
4,363,lamp_street.png,nonliving,new,new,1.60851097107,1,9,,4
4,364,plate_ceramic.png,nonliving,new,new,1.47487711906,1,9,,4
4,365,rope.png,nonliving,old,new,2.26027798653,0,9,,4
4,366,backpack.png,nonliving,old,old,1.92607617378,1,9,,3
4,367,racoon.jpg,living,new,new,3.49712109566,1,9,,4
4,368,crutches.jpg,nonliving,old,new,1.87598896027,0,9,,3
4,369,horse.png,living,new,new,0.973533153534,1,9,,4
4,370,letter_mail.png,nonliving,old,new,3.74825692177,0,9,,1
4,371,dog_leash.jpg,nonliving,old,old,0.973605871201,1,9,,4
4,372,washingmachine.png,nonliving,new,new,1.6922109127,1,9,,3
4,373,hanger.png,nonliving,old,old,0.722850084305,1,9,,4
4,374,chest_toys.png,nonliving,old,old,1.07385492325,1,9,,4
4,375,dart.jpg,nonliving,new,new,2.00963401794,1,9,,4
4,376,peppermill.png,nonliving,old,new,1.94275283813,0,9,,3
4,377,socks_winter.png,nonliving,old,old,1.20748806,1,9,,4
4,378,pin_clothes.png,nonliving,old,old,0.990112066269,1,9,,4
4,379,match.png,nonliving,old,old,4.43300580978,1,9,,4
4,380,bowtie.jpg,nonliving,old,old,1.1376760006,1,9,,4
4,381,portapotty.png,nonliving,old,new,4.33273887634,0,9,,3
4,382,domino.png,nonliving,old,new,1.70898604393,0,9,,4
4,383,pillow.png,nonliving,old,old,5.76987791061,1,9,,3
4,384,thumbtack.png,nonliving,old,old,2.12691402435,1,9,,4
4,385,fan.png,nonliving,new,new,1.27420592308,1,9,,4
4,386,dreamcatcher.png,nonliving,old,old,13.0063309669,1,9,,4
4,387,newspaper_stack.png,nonliving,new,new,2.82848000526,1,9,,3
4,388,checkers_board.jpg,nonliving,old,old,0.940062046051,1,9,,4
4,389,shoe_pumps.jpg,nonliving,new,new,1.07405209541,1,9,,3
4,390,mop.png,nonliving,old,new,1.77587199211,0,9,,4
4,391,belt.png,nonliving,old,new,1.47513198853,0,9,,3
4,392,dolphin.png,living,old,old,1.00710105896,1,9,,4
4,393,eraser.png,nonliving,new,new,1.20764780045,1,9,,4
4,394,tickets.png,nonliving,old,old,5.01772809029,1,9,,4
4,395,garbageBin.jpg,nonliving,old,old,6.89008498192,1,9,,4
4,396,firstAidKit.png,nonliving,old,old,0.973474979401,1,9,,4
4,397,wheel_steering.jpg,nonliving,old,old,1.32450580597,1,9,,4
4,398,guacamole.png,nonliving,old,old,1.52503013611,1,9,,4
4,399,crown.png,nonliving,old,old,1.45782279968,1,9,,4
4,400,bottle_spray.jpg,nonliving,old,new,1.68930506706,0,9,,3
4,401,tiger_white.png,living,new,new,2.27758812904,1,9,,4
4,402,flashlight.png,nonliving,old,new,1.04040002823,0,9,,4
4,403,toys_lego.png,nonliving,old,new,2.47762608528,0,9,,3
4,404,basketballhoop.png,nonliving,old,old,1.9594540596,1,9,,4
4,405,tomato sauce.jpg,nonliving,old,new,3.2798230648,0,9,,3
4,406,feather.png,nonliving,old,old,1.37458395958,1,9,,4
4,407,wallet_blackleather.png,nonliving,new,new,2.77836990356,1,9,,4
4,408,sword.png,nonliving,old,new,8.44389605522,0,9,,4
4,409,telescope.png,nonliving,old,new,2.57773900032,0,9,,3
4,410,tray_icecube.png,nonliving,old,new,1.47517704964,0,9,,4
4,411,dress_blue.jpg,nonliving,old,old,0.92330121994,1,9,,4
4,412,card_queenspade.png,nonliving,old,old,1.19088983536,1,9,,4
4,413,candelabra.jpg,nonliving,old,old,0.973525047302,1,9,,4
4,414,bag_garbage.png,nonliving,old,old,1.92604398727,1,9,,4
4,415,origamiPaper.png,nonliving,new,new,2.56132793427,1,9,,4
4,416,sign_washroom.png,nonliving,old,old,3.04586696625,1,9,,3
4,417,champagne.jpg,nonliving,old,old,0.823018789291,1,9,,4
4,418,gingerbreadman.jpg,nonliving,old,old,0.739203929901,1,9,,4
4,419,truck_tanker.png,nonliving,old,old,1.37481999397,1,9,,4
4,420,eyeMask.jpg,nonliving,new,new,0.873229026794,1,9,,4
4,421,box_chocolate.png,nonliving,new,new,0.786764144897,1,9,,4
4,422,seal_animal.png,living,old,new,1.17340111732,0,9,,4
4,423,skates.png,nonliving,old,new,1.52499508858,0,9,,4
4,424,buffalo.png,living,old,old,8.67473006248,1,9,,3
5,1,mannequin.jpg,nonliving,old,new,1.92619109154,0,10,,2
5,2,umbrella.png,nonliving,old,new,4.78383398056,0,10,,1
5,3,ostrich.jpg,living,old,old,1.44138407707,1,10,,4
5,4,soap_bottle.png,nonliving,old,old,1.04021787643,1,10,,4
5,5,mask_black.png,nonliving,old,old,0.940025091171,1,10,,4
5,6,stick_ice hockey.png,nonliving,old,old,2.67802214622,1,10,,1
5,7,cane.png,nonliving,old,old,1.29067802429,1,10,,3
5,8,smokingpipe.png,nonliving,old,old,1.19089698792,1,10,,3
5,9,candy.png,nonliving,old,old,0.990137815475,1,10,,4
5,10,boxingGloves.png,nonliving,old,old,0.973828077316,1,10,,4
5,11,owl.png,living,old,old,0.990203857422,1,10,,4
5,12,giftbox.jpg,nonliving,old,new,3.0794980526,0,10,,1
5,13,bowtie.jpg,nonliving,old,old,1.92641997337,1,10,,1
5,14,fireextinguisher.jpg,nonliving,old,old,1.04055500031,1,10,,3
5,15,scissors.png,nonliving,new,old,1.28803896904,0,10,,1
5,16,clothespin.jpg,nonliving,old,new,2.22692084312,0,10,,3
5,17,flamingo.png,living,old,new,1.17400598526,0,10,,1
5,18,paper towel.jpg,nonliving,old,old,1.87310099602,1,10,,4
5,19,dragonfly.png,living,old,old,1.94267416,1,10,,4
5,20,shoe_pumps.jpg,nonliving,new,new,1.3580391407,1,10,,1
5,21,fryingpan.png,nonliving,old,old,2.72821187973,1,10,,4
5,22,hoodieGray.jpg,nonliving,old,old,1.05689787865,1,10,,4
5,23,towel.png,nonliving,old,old,2.21020698547,1,10,,2
5,24,shampoo.jpg,nonliving,old,old,1.3913090229,1,10,,2
5,25,watergun.png,nonliving,old,old,1.27464604378,1,10,,4
5,26,tap_bathroom.jpg,nonliving,old,old,0.873559951782,1,10,,4
5,27,flashlight.png,nonliving,old,old,0.87321805954,1,10,,4
5,28,boot_rain.png,nonliving,old,new,1.80917310715,0,10,,2
5,29,spiderweb.png,nonliving,old,old,1.13768815994,1,10,,3
5,30,walkitalkie.png,nonliving,old,old,0.789607048035,1,10,,2
5,31,dryingmachine02.png,nonliving,old,old,1.0571231842,1,10,,4
5,32,skates.png,nonliving,old,old,1.07378292084,1,10,,1
5,33,sheep.jpg,living,old,new,1.24084210396,0,10,,4
5,34,firstAidKit.png,nonliving,old,old,3.78115701675,1,10,,4
5,35,egg_easter.jpg,nonliving,old,new,1.85628294945,0,10,,3
5,36,hanger.png,nonliving,old,new,1.45824384689,0,10,,1
5,37,megaphone.png,nonliving,old,new,2.14033579826,0,10,,2
5,38,paddle ball.jpg,nonliving,old,old,1.12383913994,1,10,,4
5,39,swing set.jpg,nonliving,old,old,0.769701004028,1,10,,4
5,40,goat.png,living,old,old,1.20744204521,1,10,,4
5,41,seal_animal.png,living,new,new,1.52501893044,1,10,,3
5,42,notepad.jpg,nonliving,new,new,1.22420096397,1,10,,3
5,43,bus_doubledecker.png,nonliving,new,new,1.87594985962,1,10,,3
5,44,bird_toucan.png,living,new,new,1.02365112305,1,10,,3
5,45,rolling pin.jpg,nonliving,old,old,1.04034304619,1,10,,4
5,46,1bear_polarbear.png,living,new,new,2.77839994431,1,10,,2
5,47,donutFloaty.png,nonliving,old,old,1.9260559082,1,10,,4
5,48,butterfly.png,living,old,new,2.47752809525,0,10,,1
5,49,staircase.jpg,nonliving,old,new,1.57508111,0,10,,2
5,50,statue_metal_man.jpg,nonliving,new,new,1.84251713753,1,10,,4
5,51,archery.jpg,nonliving,old,old,1.22395682335,1,10,,4
5,52,vaseDecorativeOriental.jpg,nonliving,old,old,1.07382488251,1,10,,3
5,53,clock_digital.png,nonliving,old,old,0.953848838806,1,10,,4
5,54,lynx.png,living,new,new,1.85929083824,1,10,,2
5,55,bean bag chair.png,nonliving,old,old,1.12385606766,1,10,,4
5,56,thermometer.png,nonliving,old,old,1.03732705116,1,10,,4
5,57,sphinx.png,nonliving,old,old,0.706065893173,1,10,,4
5,58,gloves_winter.png,nonliving,old,old,0.990257978439,1,10,,2
5,59,1bird_canadiangoose.jpg,living,old,old,1.67531204224,1,10,,4
5,60,grasshopper.png,living,new,new,1.64189600945,1,10,,2
5,61,inukshuk.png,nonliving,old,old,1.15802598,1,10,,4
5,62,feather.png,nonliving,old,old,0.823004007339,1,10,,4
5,63,globe.png,nonliving,old,old,0.689357995987,1,10,,4
5,64,pants_firefighter.jpg,nonliving,old,old,0.772804021835,1,10,,4
5,65,playground.png,nonliving,old,new,2.5110411644,0,10,,2
5,66,ball_8.png,nonliving,old,old,1.07366609573,1,10,,4
5,67,champagne.jpg,nonliving,old,old,2.64474797249,1,10,,2
5,68,wirebeadmaze.png,nonliving,old,old,1.17402482033,1,10,,2
5,69,ring_diamond.png,nonliving,old,old,0.923585891724,1,10,,4
5,70,bucket_halloween.jpg,nonliving,old,old,1.82274484634,1,10,,4
5,71,whistle.png,nonliving,old,old,0.72262096405,1,10,,4
5,72,shield_antique.png,nonliving,new,new,1.32403206825,1,10,,3
5,73,tire_car.png,nonliving,old,new,1.5249941349,0,10,,2
5,74,shoe_sneaker.png,nonliving,old,old,1.39124488831,1,10,,4
5,75,beaver.jpg,living,new,old,2.39401292801,0,10,,2
5,76,iguana.png,living,new,new,2.12354183197,1,10,,3
5,77,candle.png,nonliving,old,old,1.24090003967,1,10,,4
5,78,whisk_electric.jpg,nonliving,old,old,1.08748912811,1,10,,4
5,79,cookie_jar.jpg,nonliving,new,new,1.32489418983,1,10,,3
5,80,motorcycle.png,nonliving,old,old,1.22329998016,1,10,,4
5,81,outhouse.png,nonliving,new,new,2.0263671875,1,10,,3
5,82,kite.png,nonliving,old,old,1.14102196693,1,10,,4
5,83,gazebo_wooden.png,nonliving,new,new,1.20789289474,1,10,,2
5,84,fish_swordfish.png,living,old,old,1.59178090096,1,10,,2
5,85,fork.png,nonliving,old,old,1.92736506462,1,10,,4
5,86,garbageBin.jpg,nonliving,old,old,1.00383806229,1,10,,4
5,87,key_car.png,nonliving,new,new,2.32708191872,1,10,,2
5,88,stroller.png,nonliving,old,old,1.52492594719,1,10,,4
5,89,plain_rice.jpg,nonliving,old,old,0.739615917206,1,10,,4
5,90,ice cubes.png,nonliving,old,old,0.722735881805,1,10,,4
5,91,boat.png,nonliving,old,old,0.789506912231,1,10,,4
5,92,earrings_dangling.jpg,nonliving,old,old,0.589161157608,1,10,,4
5,93,bagel.png,nonliving,old,old,0.807454109192,1,10,,4
5,94,bathtub.png,nonliving,old,old,0.722706079483,1,10,,4
5,95,birdhouse.png,nonliving,old,old,0.806426048279,1,10,,4
5,96,spoons_measuring.jpg,nonliving,old,old,0.639141082764,1,10,,4
5,97,panda.jpg,living,old,old,1.17311906815,1,10,,4
5,98,hair_scrunchie.png,nonliving,old,new,2.17670297623,0,10,,2
5,99,seahorse.png,living,new,new,2.2435259819,1,10,,2
5,100,toy_jack-in-the-box.jpg,nonliving,old,old,1.44142794609,1,10,,4
5,101,guitar_electric.png,nonliving,old,old,0.672811031342,1,10,,4
5,102,sign_washroom.png,nonliving,old,old,2.92885494232,1,10,,1
5,103,newspaper_stack.png,nonliving,new,old,1.60817122459,0,10,,1
5,104,bread_unleavened.png,nonliving,old,new,4.53315091133,0,10,,3
5,105,scooter.png,nonliving,old,old,1.07398414612,1,10,,4
5,106,electricoutlet.png,nonliving,new,new,1.65888190269,1,10,,2
5,107,brush_paint.png,nonliving,old,old,0.990266084671,1,10,,4
5,108,boxtruck.png,nonliving,old,old,1.13766288757,1,10,,3
5,109,spotlight.png,nonliving,old,old,0.990443944931,1,10,,4
5,110,chipmunk.jpg,living,old,old,1.32543587685,1,10,,4
5,111,ghost.png,nonliving,old,old,0.873515129089,1,10,,4
5,112,laces.jpg,nonliving,old,old,0.839838027954,1,10,,4
5,113,tissuebox.png,nonliving,old,old,0.569422960281,1,10,,4
5,114,grillGas.jpg,nonliving,new,old,0.572386980057,0,10,,1
5,115,toothbrush.png,nonliving,new,new,2.04008412361,1,10,,2
5,116,hairdryer.png,nonliving,old,new,1.59191417694,0,10,,1
5,117,loofah.png,nonliving,old,old,1.17463183403,1,10,,4
5,118,box_chocolate.png,nonliving,new,new,1.50825595856,1,10,,3
5,119,toy_slinky.png,nonliving,new,new,1.77568697929,1,10,,3
5,120,quartz.png,nonliving,old,old,1.19096684456,1,10,,4
5,121,magnifyingglass.png,nonliving,old,old,0.839824914932,1,10,,4
5,122,macaroni.png,nonliving,old,new,1.4747338295,0,10,,2
5,123,glove_baseball.png,nonliving,new,new,1.34145116806,1,10,,3
5,124,coffeepot.png,nonliving,old,old,1.19079899788,1,10,,4
5,125,pencil.png,nonliving,old,old,1.12385010719,1,10,,4
5,126,card_queenspade.png,nonliving,old,old,0.889798164368,1,10,,4
5,127,drinkingfountain.png,nonliving,old,old,1.49148201942,1,10,,4
5,128,handheldMirror.jpg,nonliving,old,old,1.39142107964,1,10,,4
5,129,sandwich_egg.png,nonliving,old,old,1.22412395477,1,10,,4
5,130,stoveAntique.jpg,nonliving,old,old,1.68907284737,1,10,,3
5,131,hammer.png,nonliving,old,old,1.02397084236,1,10,,4
5,132,gametable_airhockey.png,nonliving,old,old,2.02628803253,1,10,,2
5,133,comb.png,nonliving,new,new,55.4009931087,1,10,,3
5,134,carton_eggs.png,nonliving,old,old,1.77560591698,1,10,,4
5,135,fuzzydice.jpg,nonliving,old,old,2.12651801109,1,10,,4
5,136,domino.png,nonliving,old,old,0.990163087845,1,10,,4
5,137,toy_alien.jpg,nonliving,old,old,1.2410531044,1,10,,4
5,138,costume_wizard.jpg,nonliving,old,old,0.706037044525,1,10,,4
5,139,glassBall.jpg,nonliving,new,new,1.32444405556,1,10,,3
5,140,diving_board.jpg,nonliving,old,old,1.62532305717,1,10,,4
5,141,camel.png,living,new,new,1.72611904144,1,10,,3
5,142,tablePingPong.jpg,nonliving,new,new,2.26023316383,1,10,,2
5,143,ram.png,living,old,old,1.64182806015,1,10,,4
5,144,partyDress.png,nonliving,old,new,3.02883601189,0,10,,3
5,145,escalator.png,nonliving,old,new,1.38829803467,0,10,,2
5,146,drill.png,nonliving,old,old,1.29104399681,1,10,,4
5,147,horse.png,living,old,new,4.34930896759,0,10,,2
5,148,ship_battle.png,nonliving,old,old,1.30444216728,1,10,,4
5,149,hat_tuque.png,nonliving,old,new,3.88129901886,0,10,,2
5,150,windowblinds.png,nonliving,new,new,2.36105084419,1,10,,3
5,151,crown.png,nonliving,old,old,1.92589712143,1,10,,3
5,152,boots_hiking.png,nonliving,old,old,1.6253118515,1,10,,4
5,153,dog_food.png,nonliving,old,old,0.689460992813,1,10,,4
5,154,croissant.png,nonliving,old,old,0.622573137283,1,10,,4
5,155,coin.jpg,nonliving,old,old,0.639780044556,1,10,,4
5,156,gum_pack.png,nonliving,old,old,0.539354085922,1,10,,4
5,157,kangaroo.png,living,new,old,1.20669984818,0,10,,4
5,158,bowling pin.png,nonliving,old,old,1.24118804932,1,10,,4
5,159,drum_set.png,nonliving,old,new,1.19103813171,0,10,,3
5,160,rollerblade.png,nonliving,old,old,1.24075889587,1,10,,4
5,161,cake_wedding.png,nonliving,old,new,1.27429008484,0,10,,3
5,162,bottle_spray.jpg,nonliving,old,old,1.07400488853,1,10,,3
5,163,brush_makeup.png,nonliving,new,old,1.67503619194,0,10,,3
5,164,diaper changing station.png,nonliving,old,old,0.973391056061,1,10,,4
5,165,bolt.png,nonliving,old,old,1.90930700302,1,10,,2
5,166,bugle.png,nonliving,old,old,0.937036037445,1,10,,4
5,167,pacifier.png,nonliving,old,old,0.940420150757,1,10,,4
5,168,cautionSignFrench.png,nonliving,old,old,0.739758968353,1,10,,4
5,169,boar.png,living,old,old,1.50522780418,1,10,,3
5,170,watercolorpaintset.png,nonliving,new,new,1.57214403152,1,10,,3
5,171,pliers.png,nonliving,old,old,1.07367992401,1,10,,4
5,172,tuxedo.jpg,nonliving,old,new,2.0765709877,0,10,,2
5,173,teapot.png,nonliving,old,old,1.67606902122,1,10,,3
5,174,glasses_sun.png,nonliving,old,old,4.73388004303,1,10,,3
5,175,paintcan.jpg,nonliving,old,old,1.97614407539,1,10,,3
5,176,paddle.png,nonliving,old,old,0.772886037827,1,10,,2
5,177,checkers_board.jpg,nonliving,old,old,1.02377295494,1,10,,4
5,178,weights.png,nonliving,old,old,0.739509105682,1,10,,4
5,179,turtle.png,living,new,old,1.02361392975,0,10,,2
5,180,oldBook.png,nonliving,old,old,1.04023194313,1,10,,4
5,181,mask_hockeygoalie.png,nonliving,old,old,0.789990901947,1,10,,4
5,182,plate_ceramic.png,nonliving,new,old,0.672868967056,0,10,,1
5,183,eraser.png,nonliving,new,old,2.36068582535,0,10,,1
5,184,slide_children.png,nonliving,old,old,0.940052986145,1,10,,4
5,185,knife_butter.png,nonliving,old,old,1.05712485313,1,10,,4
5,186,dreamcatcher.png,nonliving,old,old,0.873118877411,1,10,,4
5,187,giftbow01.png,nonliving,old,old,0.789608001709,1,10,,4
5,188,babybottle.jpg,nonliving,old,old,0.622420072556,1,10,,4
5,189,lionWalking.png,living,new,new,1.9768409729,1,10,,3
5,190,origamiPaper.png,nonliving,new,new,2.22683191299,1,10,,3
5,191,snorkle.jpg,nonliving,new,old,1.27126502991,0,10,,4
5,192,cheeseGouda.png,nonliving,old,old,0.836766004562,1,10,,4
5,193,piano_keyboard.png,nonliving,old,new,1.89265990257,0,10,,2
5,194,ball_baseball.png,nonliving,old,old,0.873184919357,1,10,,4
5,195,wheel_steering.jpg,nonliving,old,old,0.672593832016,1,10,,4
5,196,cinnamonroll.png,nonliving,old,old,0.639262914658,1,10,,4
5,197,puppettheatre.png,nonliving,old,old,0.722456216812,1,10,,4
5,198,lawnmower.png,nonliving,old,old,0.538968086243,1,10,,4
5,199,rug.png,nonliving,old,old,0.689399003983,1,10,,4
5,200,hat_hard.png,nonliving,new,new,1.22411799431,1,10,,3
5,201,paddle_bread.png,nonliving,old,old,0.822924137115,1,10,,4
5,202,chair_deck.png,nonliving,old,old,0.689434051514,1,10,,4
5,203,lamp_street.png,nonliving,new,old,0.619590044022,0,10,,2
5,204,hot pad.jpg,nonliving,old,old,0.772990942001,1,10,,4
5,205,stapler.png,nonliving,old,old,0.589069128036,1,10,,4
5,206,mouse.jpg,living,new,new,1.4581990242,1,10,,3
5,207,cow.png,living,old,old,1.44140005112,1,10,,4
5,208,swan.png,living,new,old,1.30774712563,0,10,,2
5,209,bag_garbage.png,nonliving,old,old,0.990232944489,1,10,,4
5,210,dart.jpg,nonliving,new,new,2.00967311859,1,10,,4
5,211,socks_winter.png,nonliving,old,old,0.789693117142,1,10,,2
5,212,shrimp.png,nonliving,old,old,2.86169195175,1,10,,4
5,213,chest_toys.png,nonliving,old,old,1.04034304619,1,10,,4
5,214,tiara.png,nonliving,old,old,2.82851886749,1,10,,2
5,215,gingerbreadman.jpg,nonliving,old,old,3.06247210503,1,10,,4
5,216,package.png,nonliving,old,old,0.8731508255,1,10,,4
5,217,clip_paper.png,nonliving,old,old,0.589236974716,1,10,,4
5,218,dolphin.png,living,new,new,1.17125511169,1,10,,3
5,219,compass.png,nonliving,old,new,1.97620296478,0,10,,4
5,220,perfume.png,nonliving,old,old,0.923219919205,1,10,,4
5,221,whale.jpg,living,new,new,1.5752081871,1,10,,3
5,222,portapotty.png,nonliving,old,old,0.786894083023,1,10,,4
5,223,kitchen sink.jpg,nonliving,new,new,1.54182100296,1,10,,2
5,224,wallet_blackleather.png,nonliving,new,new,1.47473192215,1,10,,3
5,225,pan_muffin.png,nonliving,old,old,2.00975418091,1,10,,3
5,226,water well.png,nonliving,old,old,1.02290487289,1,10,,4
5,227,Baby-Bunny-Wallpaper-Free-Download.png,living,new,new,1.67539596558,1,10,,3
5,228,dust_pan.png,nonliving,old,old,0.836928129196,1,10,,4
5,229,statue_head.png,nonliving,old,old,1.13765597343,1,10,,4
5,230,truck_tanker.png,nonliving,old,old,1.22465491295,1,10,,4
5,231,net_butterfly.jpg,nonliving,old,old,1.12391495705,1,10,,4
5,232,puzzlepiece.png,nonliving,old,new,4.13211202621,0,10,,3
5,233,goldnugget.png,nonliving,old,old,0.990154981613,1,10,,4
5,234,handbag.png,nonliving,old,old,4.73369407654,1,10,,3
5,235,candydispenser.png,nonliving,old,old,0.889778852463,1,10,,3
5,236,lightbulb.png,nonliving,old,new,1.78933882713,0,10,,3
5,237,tape.png,nonliving,new,new,1.45811915398,1,10,,3
5,238,potFlowerClay.png,nonliving,old,new,1.34121084213,0,10,,2
5,239,washingmachine.png,nonliving,new,old,0.990192174911,0,10,,3
5,240,figurine_ballerina.jpg,nonliving,old,old,1.40808010101,1,10,,4
5,241,doublebass.png,nonliving,old,old,0.739593982697,1,10,,4
5,242,camera_security.png,nonliving,new,new,1.44140505791,1,10,,3
5,243,hyaena.jpg,living,old,old,1.77913999557,1,10,,4
5,244,antlerheadband.png,nonliving,old,old,0.739531993866,1,10,,4
5,245,babysocks.png,nonliving,old,old,0.820098876953,1,10,,4
5,246,bird_eagle 2.png,living,new,new,1.69231104851,1,10,,2
5,247,tray_icecube.png,nonliving,old,old,4.23240303993,1,10,,4
5,248,table_side.jpg,nonliving,old,new,1.39118218422,0,10,,3
5,249,basketballhoop.png,nonliving,old,old,1.22435498238,1,10,,4
5,250,hedgehog.png,living,old,new,1.1238079071,0,10,,1
5,251,snow globe.png,nonliving,old,old,3.17944097519,1,10,,2
5,252,plunger.png,nonliving,old,old,1.17408323288,1,10,,4
5,253,clam.png,living,new,new,1.35811901093,1,10,,3
5,254,starfish.png,living,new,new,1.5750939846,1,10,,4
5,255,zebra.jpg,living,old,new,0.886976957321,0,10,,1
5,256,waterfountain.png,nonliving,old,new,2.97897291183,0,10,,2
5,257,bat_baseball.png,nonliving,old,new,2.76177287102,0,10,,1
5,258,eyeMask.jpg,nonliving,new,new,1.14053487778,1,10,,3
5,259,trafficlight.png,nonliving,new,new,1.50831413269,1,10,,3
5,260,toolkit_open.png,nonliving,new,new,1.17323112488,1,10,,4
5,261,bowl_cereal.png,nonliving,old,old,1.47471499443,1,10,,4
5,262,hat_party.png,nonliving,new,new,0.973541975021,1,10,,3
5,263,bottle_plasticwater.png,nonliving,old,new,1.69199800491,0,10,,2
5,264,street sweeper.png,nonliving,old,old,2.12668800354,1,10,,3
5,265,lizard.png,living,new,new,1.57603287697,1,10,,3
5,266,sink.png,nonliving,old,new,2.19345903397,0,10,,2
5,267,cup.jpg,nonliving,old,new,2.21044778824,0,10,,2
5,268,sword.png,nonliving,old,old,1.39127898216,1,10,,3
5,269,dog_leash.jpg,nonliving,old,new,1.29113292694,0,10,,3
5,270,mop.png,nonliving,old,new,1.04035401344,0,10,,3
5,271,crutches.jpg,nonliving,old,old,8.89501810074,1,10,,3
5,272,toyStroller.jpg,nonliving,old,old,0.939950942993,1,10,,4
5,273,guineaPig.png,living,old,old,1.32439398766,1,10,,4
5,274,pajamas.png,nonliving,old,old,1.32441210747,1,10,,2
5,275,pool_kiddie.png,nonliving,new,new,1.47571802139,1,10,,3
5,276,squirrel.jpg,living,old,old,1.224173069,1,10,,4
5,277,cougar.png,living,new,new,1.67554402351,1,10,,3
5,278,fish_rockbass.png,living,new,new,1.47485494614,1,10,,3
5,279,glueGun.jpg,nonliving,old,old,1.10724592209,1,10,,4
5,280,elephant.png,living,old,old,1.70900702477,1,10,,4
5,281,building_door.png,nonliving,old,new,1.54160118103,0,10,,2
5,282,dog_cockerspaniel.jpg,living,old,old,2.22693920135,1,10,,2
5,283,pailGarden.png,nonliving,new,new,2.46095514297,1,10,,3
5,284,tickets.png,nonliving,old,old,1.32441711426,1,10,,3
5,285,sled.png,nonliving,old,old,2.39092588425,1,10,,3
5,286,necklace_pearl.png,nonliving,old,old,1.39124107361,1,10,,3
5,287,skirt.jpg,nonliving,old,old,0.78969502449,1,10,,3
5,288,guacamole.png,nonliving,old,old,1.02354812622,1,10,,4
5,289,horn_french.png,nonliving,old,new,1.84250617027,0,10,,2
5,290,cookiecutter_bell.png,nonliving,old,old,0.990229129791,1,10,,4
5,291,belt.png,nonliving,old,new,1.97627210617,0,10,,2
5,292,pylonTraffic.jpg,nonliving,old,old,0.823603868484,1,10,,3
5,293,chips.png,nonliving,old,old,0.939979076385,1,10,,4
5,294,cake_cheese.png,nonliving,old,new,1.48854398727,0,10,,3
5,295,bumblebee.png,living,new,old,1.25820589066,0,10,,1
5,296,napkin_ring.png,nonliving,old,new,2.37729883194,0,10,,3
5,297,giraffe.png,living,old,old,1.62529397011,1,10,,4
5,298,doghouse.png,nonliving,old,new,1.14030599594,0,10,,3
5,299,microwave.png,nonliving,old,old,1.79233598709,1,10,,3
5,300,pretzel.png,nonliving,old,old,6.8563170433,1,10,,4
5,301,wreath.png,nonliving,old,old,9.31549096107,1,10,,4
5,302,bin_recycling.png,nonliving,old,old,1.67247915268,1,10,,3
5,303,sundae_banana.png,nonliving,old,old,2.94547986984,1,10,,3
5,304,shirt_tshirt.png,nonliving,old,old,2.26024389267,1,10,,2
5,305,chick.png,living,new,new,1.82589006424,1,10,,3
5,306,caterpillar_green.png,living,old,old,1.22472286224,1,10,,4
5,307,space shuttle.png,nonliving,new,new,2.37733411789,1,10,,3
5,308,lock_combination.jpg,nonliving,old,old,1.207447052,1,10,,4
5,309,buffalo.png,living,new,new,1.38822603226,1,10,,3
5,310,pig.png,living,old,new,1.67528605461,0,10,,2
5,311,pants.png,nonliving,old,old,1.14133381844,1,10,,3
5,312,number_3.png,nonliving,old,old,1.28854393959,1,10,,4
5,313,rope_skipping.png,nonliving,old,new,1.44145679474,0,10,,3
5,314,flipflopsBlue.png,nonliving,new,new,5.36887097359,1,10,,2
5,315,toy_truck.jpg,nonliving,old,old,1.70863604546,1,10,,3
5,316,shelf_book.png,nonliving,old,new,1.29115796089,0,10,,3
5,317,noisemaker.jpg,nonliving,old,new,1.57529497147,0,10,,3
5,318,flute_wooden.png,nonliving,old,old,1.32436800003,1,10,,4
5,319,pen.png,nonliving,old,old,1.09053301811,1,10,,4
5,320,tricycle.png,nonliving,old,new,1.99281406403,0,10,,3
5,321,ladder.png,nonliving,old,new,4.88423705101,0,10,,4
5,322,peppermill.png,nonliving,old,new,1.39125990868,0,10,,3
5,323,poles_ski.png,nonliving,old,new,1.42455601692,0,10,,3
5,324,pin_clothes.png,nonliving,old,old,6.42207622528,1,10,,3
5,325,pyramid.png,nonliving,new,new,1.32431507111,1,10,,3
5,326,englishmuffin.png,nonliving,old,old,2.3775370121,1,10,,4
5,327,ruler_triangle.png,nonliving,new,new,2.16037297249,1,10,,3
5,328,plasticChairGreen.jpg,nonliving,new,new,3.93153119087,1,10,,3
5,329,lipstick.png,nonliving,new,new,2.54430818558,1,10,,2
5,330,pencilsharpener.png,nonliving,old,old,1.2741959095,1,10,,4
5,331,bicycle.png,nonliving,new,new,1.424669981,1,10,,3
5,332,hose_garden.png,nonliving,old,old,1.97619009018,1,10,,3
5,333,ribbon.jpg,nonliving,old,old,3.09294104576,1,10,,4
5,334,soap.png,nonliving,old,old,1.52495789528,1,10,,4
5,335,backpack.png,nonliving,old,new,1.6086139679,0,10,,3
5,336,lollipop.png,nonliving,old,old,1.1912958622,1,10,,4
5,337,drainplug.png,nonliving,new,new,1.34109902382,1,10,,3
5,338,dress_blue.jpg,nonliving,old,old,6.43841314316,1,10,,3
5,339,binoculars.png,nonliving,old,old,1.05419301987,1,10,,3
5,340,wolf.png,living,new,new,1.74232387543,1,10,,3
5,341,bucket_antique.png,nonliving,new,new,1.12397003174,1,10,,3
5,342,watercooler.png,nonliving,old,old,1.34127998352,1,10,,4
5,343,chain_rusty.png,nonliving,old,old,1.18965315819,1,10,,4
5,344,worldmap.png,nonliving,old,old,1.3746240139,1,10,,4
5,345,concreteblock.png,nonliving,old,old,1.04033899307,1,10,,3
5,346,saw.png,nonliving,old,old,0.873109102249,1,10,,3
5,347,candycane.jpg,nonliving,old,old,1.40802097321,1,10,,4
5,348,pencilCase.png,nonliving,new,new,1.52503609657,1,10,,3
5,349,gun_nerf.jpg,nonliving,old,old,1.17395305634,1,10,,4
5,350,mousepad.png,nonliving,new,new,1.39120483398,1,10,,3
5,351,dog_toy.png,nonliving,old,old,1.29119300842,1,10,,3
5,352,telescope.png,nonliving,old,old,1.57514095306,1,10,,4
5,353,bench_park.png,nonliving,old,new,1.39146304131,0,10,,3
5,354,remotecontrol.png,nonliving,old,old,1.29118204117,1,10,,3
5,355,pillow.png,nonliving,old,old,1.59219789505,1,10,,3
5,356,lobster.png,living,new,new,1.42492318153,1,10,,3
5,357,trophy_man.png,nonliving,old,old,1.29081082344,1,10,,4
5,358,helicopter.jpg,nonliving,old,old,1.27433514595,1,10,,3
5,359,basket_straw.png,nonliving,old,new,3.93149590492,0,10,,2
5,360,pictureframe.png,nonliving,old,old,1.02371692657,1,10,,4
5,361,razor.png,nonliving,old,old,1.29100799561,1,10,,4
5,362,arch.png,nonliving,old,new,1.44141793251,0,10,,3
5,363,crayon_green.png,nonliving,old,old,1.02368211746,1,10,,4
5,364,yarn_ball.png,nonliving,old,old,0.990137815475,1,10,,4
5,365,lifejacket.png,nonliving,old,new,1.42491698265,0,10,,3
5,366,dresser.png,nonliving,old,new,1.22423100471,0,10,,3
5,367,toilet.png,nonliving,new,new,1.39154195786,1,10,,3
5,368,headphones.png,nonliving,old,new,1.4414908886,0,10,,3
5,369,milk_shake.jpg,nonliving,new,new,1.65956807137,1,10,,3
5,370,goggles_swim.png,nonliving,old,old,1.34161901474,1,10,,3
5,371,chalkboarderaser.png,nonliving,old,old,1.63893699646,1,10,,2
5,372,bug_ladybug.png,living,old,old,1.39183616638,1,10,,4
5,373,letter_mail.png,nonliving,old,old,1.1877310276,1,10,,4
5,374,television.png,nonliving,old,new,1.12405800819,0,10,,3
5,375,pirateflag.jpg,nonliving,old,old,1.02348685265,1,10,,3
5,376,button_plastic.png,nonliving,old,old,1.12449407578,1,10,,3
5,377,hairband.png,nonliving,old,old,5.63614296913,1,10,,3
5,378,cat.png,living,new,new,1.35777211189,1,10,,3
5,379,doorbolt.png,nonliving,new,new,1.52506494522,1,10,,3
5,380,shears_garden.jpg,nonliving,old,old,1.55849194527,1,10,,2
5,381,notebook_black.png,nonliving,old,old,1.53865909576,1,10,,2
5,382,mug.png,nonliving,old,new,1.29099702835,0,10,,3
5,383,rope.png,nonliving,old,old,0.990495920181,1,10,,4
5,384,fan.png,nonliving,new,new,1.30769991875,1,10,,3
5,385,playdoh.png,nonliving,old,old,3.79470396042,1,10,,4
5,386,barrel.png,nonliving,old,old,2.82859492302,1,10,,3
5,387,toad.png,living,old,old,1.57504296303,1,10,,4
5,388,penguin.png,living,new,new,1.24089503288,1,10,,3
5,389,castle_sand.png,nonliving,old,new,3.63061094284,0,10,,3
5,390,match.png,nonliving,old,old,1.18970298767,1,10,,4
5,391,macaque.png,living,new,new,1.25764298439,1,10,,3
5,392,bib.png,nonliving,old,old,0.987201929092,1,10,,3
5,393,toys_lego.png,nonliving,old,old,0.940065145493,1,10,,4
5,394,cloud.png,nonliving,old,new,1.22407603264,0,10,,2
5,395,crab.png,living,new,new,1.70599389076,1,10,,3
5,396,cashregister.png,nonliving,old,old,1.49169898033,1,10,,3
5,397,bandage.jpg,nonliving,old,old,1.291451931,1,10,,4
5,398,ambulance.png,nonliving,new,new,1.1907980442,1,10,,4
5,399,tomato sauce.jpg,nonliving,old,new,1.39148592949,0,10,,3
5,400,oven.png,nonliving,new,old,1.77305984497,0,10,,3
5,401,tiger_white.png,living,old,old,2.67512512207,1,10,,2
5,402,wateringcan.png,nonliving,old,new,2.47782993317,0,10,,3
5,403,wheel barrow.png,nonliving,old,new,1.97673797607,0,10,,3
5,404,toothpaste.png,nonliving,old,old,1.64204120636,1,10,,3
5,405,balloon.jpg,nonliving,old,old,1.09067511559,1,10,,4
5,406,calculator.png,nonliving,old,old,1.04029893875,1,10,,4
5,407,snow shoes.png,nonliving,old,old,1.12411808968,1,10,,4
5,408,radioclock.jpg,nonliving,old,new,1.90946507454,0,10,,3
5,409,racoon.jpg,living,old,old,1.33810997009,1,10,,4
5,410,mitten.png,nonliving,old,new,1.57221794128,0,10,,2
5,411,squid.jpg,living,old,old,1.32481718063,1,10,,4
5,412,firehydrant.png,nonliving,new,new,1.25706005096,1,10,,2
5,413,bed.png,nonliving,old,new,1.75903105736,0,10,,3
5,414,candelabra.jpg,nonliving,old,new,1.34113812447,0,10,,3
5,415,caribou.png,living,old,new,1.8090569973,0,10,,2
5,416,qtip.png,nonliving,old,old,1.64190101624,1,10,,2
5,417,watch.png,nonliving,old,old,1.92642498016,1,10,,3
5,418,teabag.jpg,nonliving,old,old,2.17405390739,1,10,,3
5,419,pitcher_plastic.png,nonliving,new,new,2.67770719528,1,10,,3
5,420,dog_bulldog.jpg,living,old,new,1.42470502853,0,10,,1
5,421,thumbtack.png,nonliving,old,old,1.54159879684,1,10,,4
5,422,floortile.png,nonliving,old,old,1.07394194603,1,10,,4
5,423,car_FerrariRed.jpg,nonliving,old,new,26.8266148567,0,10,,3
5,424,bells_christmas.png,nonliving,old,old,1.63904905319,1,10,,3
6,1,net_butterfly.jpg,nonliving,old,new,4.38290095329,0,8,,2
6,2,ambulance.png,nonliving,old,old,4.41680192947,1,8,,4
6,3,bug_ladybug.png,living,new,new,1.9431989193,1,8,,2
6,4,drum_set.png,nonliving,old,old,2.74482107162,1,8,,4
6,5,plasticChairGreen.jpg,nonliving,old,new,2.79552602768,0,8,,2
6,6,mop.png,nonliving,old,new,3.36502099037,0,8,,1
6,7,escalator.png,nonliving,old,old,2.59492397308,1,8,,3
6,8,penguin.png,living,old,old,4.68406200409,1,8,,4
6,9,bottle_spray.jpg,nonliving,old,old,2.41116499901,1,8,,4
6,10,pylonTraffic.jpg,nonliving,old,new,2.27440190315,0,8,,1
6,11,giftbox.jpg,nonliving,old,old,1.75936388969,1,8,,4
6,12,dress_blue.jpg,nonliving,old,old,1.65910100937,1,8,,4
6,13,balloon.jpg,nonliving,old,old,2.19383406639,1,8,,4
6,14,shears_garden.jpg,nonliving,old,old,1.74273395538,1,8,,3
6,15,gum_pack.png,nonliving,old,new,2.64513802528,0,8,,2
6,16,candle.png,nonliving,old,old,3.07962203026,1,8,,4
6,17,soap_bottle.png,nonliving,old,old,1.94321894646,1,8,,1
6,18,hair_scrunchie.png,nonliving,old,old,2.19414687157,1,8,,4
6,19,flipflopsBlue.png,nonliving,old,old,4.14922690392,1,8,,3
6,20,checkers_board.jpg,nonliving,old,old,1.70926904678,1,8,,3
6,21,towel.png,nonliving,old,new,1.75604391098,0,8,,1
6,22,sandwich_egg.png,nonliving,old,old,2.0434820652,1,8,,4
6,23,zebra.jpg,living,new,new,1.99302315712,1,8,,2
6,24,cow.png,living,new,new,2.21070313454,1,8,,3
6,25,remotecontrol.png,nonliving,old,old,5.80377101898,1,8,,4
6,26,sphinx.png,nonliving,new,new,3.2991771698,1,8,,2
6,27,horn_french.png,nonliving,old,old,3.1467769146,1,8,,3
6,28,hat_hard.png,nonliving,old,old,6.48563981056,1,8,,3
6,29,buffalo.png,living,old,new,1.82326483727,0,8,,2
6,30,babybottle.jpg,nonliving,old,old,3.0627579689,1,8,,4
6,31,rope_skipping.png,nonliving,old,new,2.26050209999,0,8,,1
6,32,eraser.png,nonliving,old,old,5.30262207985,1,8,,4
6,33,figurine_ballerina.jpg,nonliving,old,old,2.67835593224,1,8,,4
6,34,tickets.png,nonliving,old,old,1.4251139164,1,8,,4
6,35,glove_baseball.png,nonliving,old,old,2.91213107109,1,8,,4
6,36,socks_winter.png,nonliving,old,new,1.73960709572,0,8,,4
6,37,clothespin.jpg,nonliving,new,old,2.94599103928,0,8,,2
6,38,lamp_street.png,nonliving,old,old,1.90960812569,1,8,,3
6,39,bag_garbage.png,nonliving,old,old,2.67817616463,1,8,,4
6,40,pencilCase.png,nonliving,old,old,1.32546591759,1,8,,4
6,41,caterpillar_green.png,living,new,new,1.71115803719,1,8,,3
6,42,puzzlepiece.png,nonliving,old,old,1.91023802757,1,8,,4
6,43,statue_metal_man.jpg,nonliving,old,old,2.89560103416,1,8,,4
6,44,camel.png,living,old,old,3.26444792747,1,8,,4
6,45,thumbtack.png,nonliving,old,old,2.21097397804,1,8,,4
6,46,cup.jpg,nonliving,old,old,4.56685709953,1,8,,4
6,47,radioclock.jpg,nonliving,old,old,0.973734855652,1,8,,4
6,48,boots_hiking.png,nonliving,old,new,2.3610470295,0,8,,4
6,49,cautionSignFrench.png,nonliving,old,new,0.823552131653,0,8,,4
6,50,pyramid.png,nonliving,old,new,0.739806890488,0,8,,4
6,51,pin_clothes.png,nonliving,old,new,3.49735283852,0,8,,2
6,52,sign_washroom.png,nonliving,old,old,2.02673101425,1,8,,4
6,53,shoe_sneaker.png,nonliving,old,old,0.72287607193,1,8,,4
6,54,lollipop.png,nonliving,new,new,4.41649580002,1,8,,4
6,55,electricoutlet.png,nonliving,old,old,2.40804100037,1,8,,4
6,56,boxingGloves.png,nonliving,old,old,1.39155387878,1,8,,4
6,57,mitten.png,nonliving,new,new,2.57824683189,1,8,,3
6,58,playground.png,nonliving,old,old,1.75959300995,1,8,,4
6,59,kitchen sink.jpg,nonliving,old,old,1.65916514397,1,8,,4
6,60,pitcher_plastic.png,nonliving,old,new,2.36085510254,0,8,,2
6,61,stoveAntique.jpg,nonliving,old,new,5.30237603188,0,8,,2
6,62,panda.jpg,living,new,new,1.9094979763,1,8,,1
6,63,milk_shake.jpg,nonliving,old,old,7.27328014374,1,8,,1
6,64,compass.png,nonliving,old,old,1.49187302589,1,8,,4
6,65,candelabra.jpg,nonliving,new,new,2.6448931694,1,8,,4
6,66,swing set.jpg,nonliving,old,old,2.61092090607,1,8,,4
6,67,skates.png,nonliving,old,new,2.36075997353,0,8,,4
6,68,box_chocolate.png,nonliving,old,old,2.36103081703,1,8,,4
6,69,mouse.jpg,living,old,old,3.39754581451,1,8,,4
6,70,arch.png,nonliving,new,old,1.95982193947,0,8,,1
6,71,binoculars.png,nonliving,old,old,6.20152401924,1,8,,4
6,72,fish_swordfish.png,living,new,new,2.32595014572,1,8,,4
6,73,ram.png,living,new,new,5.16854095459,1,8,,1
6,74,toilet.png,nonliving,old,old,2.77546620369,1,8,,4
6,75,paddle_bread.png,nonliving,old,new,2.09355282784,0,8,,4
6,76,rolling pin.jpg,nonliving,old,old,1.44191503525,1,8,,4
6,77,wolf.png,living,old,old,1.47513794899,1,8,,4
6,78,gloves_winter.png,nonliving,old,new,2.52816009521,0,8,,1
6,79,cookie_jar.jpg,nonliving,old,old,2.74537992477,1,8,,4
6,80,yarn_ball.png,nonliving,old,new,1.85958790779,0,8,,1
6,81,pacifier.png,nonliving,old,old,2.07684206963,1,8,,4
6,82,bench_park.png,nonliving,old,old,1.79296588898,1,8,,4
6,83,bells_christmas.png,nonliving,old,old,0.973911046982,1,8,,4
6,84,globe.png,nonliving,old,old,0.656413078308,1,8,,4
6,85,helicopter.jpg,nonliving,new,new,1.82596087456,1,8,,4
6,86,belt.png,nonliving,old,new,1.52532792091,0,8,,4
6,87,puppettheatre.png,nonliving,old,old,1.2076189518,1,8,,1
6,88,snow globe.png,nonliving,old,old,3.44473195076,1,8,,4
6,89,squid.jpg,living,new,new,2.02639293671,1,8,,4
6,90,1bird_canadiangoose.jpg,living,new,old,2.46114587784,0,8,,1
6,91,flashlight.png,nonliving,old,old,2.46128296852,1,8,,4
6,92,walkitalkie.png,nonliving,old,old,0.689626932144,1,8,,4
6,93,antlerheadband.png,nonliving,old,old,0.388915061951,1,8,,4
6,94,bread_unleavened.png,nonliving,old,old,0.372225999832,1,8,,4
6,95,hoodieGray.jpg,nonliving,old,old,0.489191055298,1,8,,4
6,96,cinnamonroll.png,nonliving,old,old,1.30823588371,1,8,,4
6,97,match.png,nonliving,old,old,0.856847047806,1,8,,4
6,98,pictureframe.png,nonliving,old,old,0.823496103287,1,8,,4
6,99,soap.png,nonliving,old,old,0.573049068451,1,8,,4
6,100,doublebass.png,nonliving,old,old,0.489070177078,1,8,,4
6,101,magnifyingglass.png,nonliving,new,new,1.45856404305,1,8,,4
6,102,seahorse.png,living,old,new,3.61445999146,0,8,,1
6,103,glueGun.jpg,nonliving,new,new,2.32735896111,1,8,,4
6,104,boot_rain.png,nonliving,new,new,4.24920797348,1,8,,4
6,105,spotlight.png,nonliving,old,old,1.69250702858,1,8,,4
6,106,dust_pan.png,nonliving,old,new,1.47496199608,0,8,,4
6,107,portapotty.png,nonliving,new,new,1.40530395508,1,8,,4
6,108,babysocks.png,nonliving,old,old,1.95694899559,1,8,,4
6,109,pliers.png,nonliving,old,old,1.32478785515,1,8,,4
6,110,paddle ball.jpg,nonliving,new,new,1.60865402222,1,8,,4
6,111,cat.png,living,old,new,2.11013698578,0,8,,1
6,112,perfume.png,nonliving,old,new,1.92341303825,0,8,,4
6,113,watercolorpaintset.png,nonliving,old,old,1.24103307724,1,8,,4
6,114,grasshopper.png,living,old,old,1.22144508362,1,8,,4
6,115,pirateflag.jpg,nonliving,old,old,1.0542178154,1,8,,4
6,116,toothbrush.png,nonliving,old,old,0.739921092987,1,8,,4
6,117,paper towel.jpg,nonliving,old,old,0.790030002594,1,8,,4
6,118,lizard.png,living,old,old,1.12125301361,1,8,,4
6,119,paddle.png,nonliving,old,old,0.642595052719,1,8,,4
6,120,plunger.png,nonliving,old,old,0.419363975525,1,8,,4
6,121,bucket_halloween.jpg,nonliving,old,old,1.72568416595,1,8,,4
6,122,bean bag chair.png,nonliving,new,new,2.0769200325,1,8,,4
6,123,crab.png,living,old,new,1.10757303238,0,8,,4
6,124,macaque.png,living,old,old,2.56159710884,1,8,,4
6,125,whisk_electric.jpg,nonliving,old,new,1.97666788101,0,8,,1
6,126,pen.png,nonliving,old,new,3.31366801262,0,8,,2
6,127,lifejacket.png,nonliving,old,old,2.51119089127,1,8,,4
6,128,costume_wizard.jpg,nonliving,old,old,1.0406692028,1,8,,4
6,129,toy_slinky.png,nonliving,old,old,0.890376091003,1,8,,4
6,130,motorcycle.png,nonliving,old,old,0.923779010773,1,8,,4
6,131,toolkit_open.png,nonliving,old,old,1.37199902534,1,8,,1
6,132,tape.png,nonliving,old,old,2.24098706245,1,8,,4
6,133,bin_recycling.png,nonliving,old,new,1.68923211098,0,8,,2
6,134,basketballhoop.png,nonliving,old,old,1.34150099754,1,8,,4
6,135,pailGarden.png,nonliving,old,new,1.65577912331,0,8,,1
6,136,butterfly.png,living,new,new,4.01554298401,1,8,,4
6,137,bolt.png,nonliving,new,new,1.65890789032,1,8,,4
6,138,fork.png,nonliving,old,new,2.52813601494,0,8,,4
6,139,scooter.png,nonliving,old,new,1.25821900368,0,8,,1
6,140,birdhouse.png,nonliving,old,old,3.59436297417,1,8,,4
6,141,spiderweb.png,nonliving,old,old,1.80933308601,1,8,,4
6,142,tap_bathroom.jpg,nonliving,old,old,1.2046251297,1,8,,4
6,143,crayon_green.png,nonliving,new,new,1.59226417542,1,8,,4
6,144,fan.png,nonliving,old,old,5.70350503922,1,8,,4
6,145,quartz.png,nonliving,old,old,2.02672505379,1,8,,4
6,146,noisemaker.jpg,nonliving,old,old,1.45858192444,1,8,,4
6,147,candydispenser.png,nonliving,old,old,0.990421772003,1,8,,4
6,148,grillGas.jpg,nonliving,old,old,1.13801312447,1,8,,4
6,149,sink.png,nonliving,old,old,0.937487125397,1,8,,4
6,150,ice cubes.png,nonliving,old,old,1.05737686157,1,8,,4
6,151,vaseDecorativeOriental.jpg,nonliving,new,old,0.853579044342,0,8,,1
6,152,sword.png,nonliving,old,old,0.990545988083,1,8,,4
6,153,wheel barrow.png,nonliving,new,new,2.14367508888,1,8,,4
6,154,fish_rockbass.png,living,old,new,1.24107503891,0,8,,1
6,155,slide_children.png,nonliving,old,old,1.39183712006,1,8,,4
6,156,tablePingPong.jpg,nonliving,old,old,1.12096595764,1,8,,4
6,157,concreteblock.png,nonliving,old,old,1.37497019768,1,8,,4
6,158,owl.png,living,new,new,2.40805602074,1,8,,1
6,159,toothpaste.png,nonliving,old,old,3.22777986526,1,8,,4
6,160,crutches.jpg,nonliving,old,old,1.40824198723,1,8,,4
6,161,toy_truck.jpg,nonliving,old,old,0.839982032776,1,8,,4
6,162,cashregister.png,nonliving,old,new,2.17710995674,0,8,,4
6,163,lipstick.png,nonliving,old,old,1.44184207916,1,8,,4
6,164,chipmunk.jpg,living,new,new,1.94296312332,1,8,,4
6,165,dog_bulldog.jpg,living,new,new,2.60835003853,1,8,,4
6,166,bus_doubledecker.png,nonliving,old,old,1.54209589958,1,8,,4
6,167,iguana.png,living,old,new,2.3911921978,0,8,,4
6,168,potFlowerClay.png,nonliving,old,old,1.25798511505,1,8,,4
6,169,worldmap.png,nonliving,old,old,0.990430116653,1,8,,4
6,170,garbageBin.jpg,nonliving,old,old,1.0237557888,1,8,,4
6,171,comb.png,nonliving,old,new,1.57563996315,0,8,,4
6,172,whistle.png,nonliving,old,old,1.69207382202,1,8,,4
6,173,hose_garden.png,nonliving,old,new,2.24418902397,0,8,,1
6,174,statue_head.png,nonliving,old,old,1.34151291847,1,8,,4
6,175,tuxedo.jpg,nonliving,old,old,1.1578400135,1,8,,4
6,176,castle_sand.png,nonliving,new,old,0.770398139954,0,8,,1
6,177,cake_wedding.png,nonliving,old,new,2.67840194702,0,8,,1
6,178,bathtub.png,nonliving,new,new,1.60562896729,1,8,,4
6,179,seal_animal.png,living,old,old,3.19664120674,1,8,,4
6,180,goat.png,living,new,new,1.89297509193,1,8,,3
6,181,bumblebee.png,living,old,old,2.71191811562,1,8,,4
6,182,wallet_blackleather.png,nonliving,old,old,1.72285509109,1,8,,4
6,183,Baby-Bunny-Wallpaper-Free-Download.png,living,old,old,1.04061794281,1,8,,4
6,184,toy_jack-in-the-box.jpg,nonliving,old,old,1.87628483772,1,8,,4
6,185,basket_straw.png,nonliving,new,old,1.05746412277,0,8,,1
6,186,tomato sauce.jpg,nonliving,new,new,1.75604605675,1,8,,4
6,187,doorbolt.png,nonliving,old,new,2.04316997528,0,8,,2
6,188,plain_rice.jpg,nonliving,old,new,1.67578291893,0,8,,4
6,189,shampoo.jpg,nonliving,old,old,1.82630801201,1,8,,4
6,190,partyDress.png,nonliving,old,old,1.62564206123,1,8,,4
6,191,horse.png,living,new,new,4.90100002289,1,8,,2
6,192,glassBall.jpg,nonliving,old,new,2.07355093956,0,8,,2
6,193,bandage.jpg,nonliving,old,old,2.8126502037,1,8,,4
6,194,bib.png,nonliving,new,new,2.06053709984,1,8,,2
6,195,drill.png,nonliving,old,old,2.19088101387,1,8,,4
6,196,thermometer.png,nonliving,old,old,5.18224406242,1,8,,3
6,197,tiara.png,nonliving,new,old,1.22605991364,0,8,,1
6,198,wirebeadmaze.png,nonliving,old,new,2.29387307167,0,8,,2
6,199,paintcan.jpg,nonliving,old,old,1.388671875,1,8,,1
6,200,notepad.jpg,nonliving,old,new,1.80946493149,0,8,,2
6,201,bucket_antique.png,nonliving,old,old,1.67580389977,1,8,,4
6,202,croissant.png,nonliving,old,old,1.2075419426,1,8,,4
6,203,bottle_plasticwater.png,nonliving,old,old,0.723191976547,1,8,,1
6,204,bird_eagle 2.png,living,old,old,2.32731199265,1,8,,4
6,205,hot pad.jpg,nonliving,new,new,2.210324049,1,8,,4
6,206,telescope.png,nonliving,old,old,1.60904097557,1,8,,4
6,207,feather.png,nonliving,old,old,2.02666711807,1,8,,4
6,208,letter_mail.png,nonliving,new,new,3.36381292343,1,8,,3
6,209,donutFloaty.png,nonliving,old,old,2.87574982643,1,8,,4
6,210,guitar_electric.png,nonliving,new,new,2.36094403267,1,8,,2
6,211,flute_wooden.png,nonliving,old,new,7.35768795013,0,8,,2
6,212,inukshuk.png,nonliving,old,old,2.36076402664,1,8,,4
6,213,wreath.png,nonliving,old,old,1.49165511131,1,8,,4
6,214,loofah.png,nonliving,old,new,1.48892116547,0,8,,2
6,215,starfish.png,living,old,old,1.30822205544,1,8,,4
6,216,notebook_black.png,nonliving,old,new,1.47662186623,0,8,,2
6,217,sundae_banana.png,nonliving,old,old,1.05752301216,1,8,,4
6,218,hairdryer.png,nonliving,old,old,1.15777587891,1,8,,4
6,219,pool_kiddie.png,nonliving,old,old,1.4920399189,1,8,,4
6,220,dreamcatcher.png,nonliving,new,new,1.55840206146,1,8,,4
6,221,oldBook.png,nonliving,old,new,2.64512705803,0,8,,1
6,222,whale.jpg,living,old,old,3.54758906364,1,8,,3
6,223,napkin_ring.png,nonliving,new,new,1.87601304054,1,8,,3
6,224,dragonfly.png,living,new,new,2.76209902763,1,8,,3
6,225,building_door.png,nonliving,old,old,1.90961909294,1,8,,4
6,226,clock_digital.png,nonliving,old,new,2.42778515816,0,8,,4
6,227,flamingo.png,living,new,new,1.74273514748,1,8,,4
6,228,mannequin.jpg,nonliving,old,new,2.22742986679,0,8,,4
6,229,wheel_steering.jpg,nonliving,new,new,1.79237103462,1,8,,4
6,230,lock_combination.jpg,nonliving,old,old,2.19086384773,1,8,,4
6,231,calculator.png,nonliving,new,new,1.80941104889,1,8,,4
6,232,tissuebox.png,nonliving,new,new,1.75892400742,1,8,,4
6,233,snorkle.jpg,nonliving,old,old,1.55874490738,1,8,,4
6,234,bowtie.jpg,nonliving,old,new,1.75936889648,0,8,,4
6,235,dog_cockerspaniel.jpg,living,new,new,6.97331905365,1,8,,1
6,236,television.png,nonliving,old,old,1.17417097092,1,8,,2
6,237,teapot.png,nonliving,old,old,6.20492005348,1,8,,2
6,238,shelf_book.png,nonliving,new,old,2.52784109116,0,8,,3
6,239,cake_cheese.png,nonliving,old,old,1.17142510414,1,8,,4
6,240,key_car.png,nonliving,old,old,1.45848107338,1,8,,4
6,241,stapler.png,nonliving,old,old,1.40863204002,1,8,,4
6,242,firstAidKit.png,nonliving,old,old,1.48897480965,1,8,,4
6,243,tire_car.png,nonliving,old,old,2.32721495628,1,8,,4
6,244,ruler_triangle.png,nonliving,old,old,1.00736188889,1,8,,4
6,245,chair_deck.png,nonliving,old,old,0.973931074142,1,8,,4
6,246,kite.png,nonliving,old,old,2.46123099327,1,8,,4
6,247,drinkingfountain.png,nonliving,old,old,1.10753893852,1,8,,1
6,248,champagne.jpg,nonliving,new,new,1.77304792404,1,8,,3
6,249,guineaPig.png,living,new,old,1.65878415108,0,8,,4
6,250,candycane.jpg,nonliving,old,old,1.73962306976,1,8,,4
6,251,coffeepot.png,nonliving,old,old,1.7091460228,1,8,,4
6,252,cougar.png,living,old,old,5.15163016319,1,8,,4
6,253,giftbow01.png,nonliving,old,old,2.52501893044,1,8,,4
6,254,truck_tanker.png,nonliving,old,old,0.990496873856,1,8,,4
6,255,space shuttle.png,nonliving,old,old,0.773382902145,1,8,,4
6,256,dog_leash.jpg,nonliving,old,new,2.22735691071,0,8,,4
6,257,brush_paint.png,nonliving,old,new,1.74270415306,0,8,,4
6,258,hyaena.jpg,living,new,new,1.82611107826,1,8,,4
6,259,button_plastic.png,nonliving,new,new,0.891288042068,1,8,,4
6,260,origamiPaper.png,nonliving,old,old,3.86932182312,1,8,,4
6,261,chips.png,nonliving,old,old,5.03192806244,1,8,,4
6,262,shoe_pumps.jpg,nonliving,old,old,1.05714797974,1,8,,4
6,263,laces.jpg,nonliving,old,old,1.07390999794,1,8,,4
6,264,pants_firefighter.jpg,nonliving,new,old,0.956931829453,0,8,,1
6,265,playdoh.png,nonliving,old,old,2.01004385948,1,8,,4
6,266,squirrel.jpg,living,new,new,1.59206604958,1,8,,4
6,267,ostrich.jpg,living,new,new,1.52241706848,1,8,,4
6,268,water well.png,nonliving,new,new,1.93988513947,1,8,,4
6,269,bird_toucan.png,living,old,old,3.58099389076,1,8,,4
6,270,dolphin.png,living,old,new,1.74231791496,0,8,,3
6,271,newspaper_stack.png,nonliving,old,old,1.09086298943,1,8,,4
6,272,qtip.png,nonliving,old,old,1.27475905418,1,8,,4
6,273,mug.png,nonliving,old,old,1.54210591316,1,8,,2
6,274,doghouse.png,nonliving,old,old,1.42503404617,1,8,,4
6,275,ball_baseball.png,nonliving,old,old,2.09354996681,1,8,,4
6,276,skirt.jpg,nonliving,old,old,2.14379692078,1,8,,4
6,277,umbrella.png,nonliving,old,old,1.20782899857,1,8,,2
6,278,cloud.png,nonliving,old,new,1.55859708786,0,8,,1
6,279,toad.png,living,new,new,2.54477500916,1,8,,4
6,280,firehydrant.png,nonliving,old,old,1.57614398003,1,8,,4
6,281,giraffe.png,living,new,old,6.05424499512,0,8,,4
6,282,englishmuffin.png,nonliving,old,old,1.12398695946,1,8,,4
6,283,pillow.png,nonliving,old,old,0.756422042847,1,8,,4
6,284,watergun.png,nonliving,old,old,1.29106688499,1,8,,4
6,285,egg_easter.jpg,nonliving,old,old,2.54459309578,1,8,,4
6,286,boar.png,living,new,new,1.59196209908,1,8,,4
6,287,pan_muffin.png,nonliving,new,new,1.59235501289,1,8,,4
6,288,table_side.jpg,nonliving,new,new,1.24135279655,1,8,,4
6,289,chalkboarderaser.png,nonliving,old,new,1.2048330307,0,8,,1
6,290,hammer.png,nonliving,old,new,1.55873298645,0,8,,4
6,291,earrings_dangling.jpg,nonliving,new,old,1.75605010986,0,8,,1
6,292,windowblinds.png,nonliving,old,new,1.52519202232,0,8,,4
6,293,microwave.png,nonliving,old,old,2.32760691643,1,8,,4
6,294,scissors.png,nonliving,old,old,1.74255800247,1,8,,4
6,295,carton_eggs.png,nonliving,old,old,1.45848798752,1,8,,4
6,296,tiger_white.png,living,new,new,2.07673597336,1,8,,4
6,297,tricycle.png,nonliving,old,old,1.35818982124,1,8,,4
6,298,backpack.png,nonliving,old,old,1.68918085098,1,8,,4
6,299,watch.png,nonliving,new,new,4.11575603485,1,8,,4
6,300,floortile.png,nonliving,old,old,1.30779790878,1,8,,4
6,301,stick_ice hockey.png,nonliving,old,old,1.09067201614,1,8,,1
6,302,knife_butter.png,nonliving,old,old,1.35532903671,1,8,,4
6,303,rope.png,nonliving,new,new,1.47524499893,1,8,,4
6,304,shrimp.png,nonliving,old,new,0.923504114151,0,8,,1
6,305,chest_toys.png,nonliving,old,new,4.95142817497,0,8,,3
6,306,washingmachine.png,nonliving,old,new,5.56980800629,0,8,,2
6,307,1bear_polarbear.png,living,old,new,2.77567911148,0,8,,4
6,308,pajamas.png,nonliving,new,old,1.20769619942,0,8,,1
6,309,lobster.png,living,old,old,1.73951411247,1,8,,1
6,310,staircase.jpg,nonliving,old,new,1.692289114,0,8,,4
6,311,waterfountain.png,nonliving,old,new,1.85941100121,0,8,,4
6,312,necklace_pearl.png,nonliving,old,old,1.86132693291,1,8,,4
6,313,swan.png,living,old,new,1.82629585266,0,8,,4
6,314,handbag.png,nonliving,new,new,1.29146790504,1,8,,4
6,315,package.png,nonliving,new,new,1.79291296005,1,8,,4
6,316,pencilsharpener.png,nonliving,old,old,2.11084794998,1,8,,4
6,317,pencil.png,nonliving,new,old,1.27166414261,0,8,,1
6,318,stroller.png,nonliving,old,new,2.97911810875,0,8,,4
6,319,clam.png,living,old,old,1.94016885757,1,8,,4
6,320,macaroni.png,nonliving,old,old,1.64227509499,1,8,,4
6,321,piano_keyboard.png,nonliving,old,old,1.52529001236,1,8,,4
6,322,street sweeper.png,nonliving,old,old,1.02385115623,1,8,,4
6,323,elephant.png,living,new,new,1.29108691216,1,8,,4
6,324,boat.png,nonliving,new,new,1.12133193016,1,8,,4
6,325,crown.png,nonliving,old,old,5.2018198967,1,8,,4
6,326,megaphone.png,nonliving,old,new,3.86516499519,0,8,,4
6,327,racoon.jpg,living,new,old,4.63388109207,0,8,,4
6,328,bagel.png,nonliving,old,old,1.42210292816,1,8,,4
6,329,weights.png,nonliving,old,old,1.2577419281,1,8,,4
6,330,domino.png,nonliving,old,old,1.00738215446,1,8,,1
6,331,card_queenspade.png,nonliving,old,old,1.35815191269,1,8,,4
6,332,turtle.png,living,old,old,2.74203586578,1,8,,4
6,333,caribou.png,living,new,new,1.97329115868,1,8,,4
6,334,kangaroo.png,living,old,new,1.02401614189,0,8,,4
6,335,gazebo_wooden.png,nonliving,old,old,2.36090397835,1,8,,4
6,336,shirt_tshirt.png,nonliving,old,new,3.34365797043,0,8,,4
6,337,hedgehog.png,living,new,new,1.07127976418,1,8,,4
6,338,clip_paper.png,nonliving,old,old,1.73959493637,1,8,,4
6,339,brush_makeup.png,nonliving,old,new,2.34425187111,0,8,,4
6,340,dog_food.png,nonliving,old,old,1.00730395317,1,8,,4
6,341,car_FerrariRed.jpg,nonliving,old,old,0.723125934601,1,8,,4
6,342,rug.png,nonliving,old,new,1.22454190254,0,8,,4
6,343,toys_lego.png,nonliving,old,old,1.67576599121,1,8,,4
6,344,gun_nerf.jpg,nonliving,old,old,0.839910030365,1,8,,4
6,345,spoons_measuring.jpg,nonliving,old,old,1.05750393867,1,8,,4
6,346,trafficlight.png,nonliving,old,old,0.589526891708,1,8,,4
6,347,ladder.png,nonliving,old,old,0.739985942841,1,8,,1
6,348,hat_party.png,nonliving,old,new,1.40839290619,0,8,,4
6,349,drainplug.png,nonliving,old,old,1.52531099319,1,8,,4
6,350,outhouse.png,nonliving,old,new,1.92656302452,0,8,,1
6,351,trophy_man.png,nonliving,old,old,1.70956397057,1,8,,4
6,352,saw.png,nonliving,old,new,1.62567281723,0,8,,4
6,353,teabag.jpg,nonliving,new,new,1.85640001297,1,8,,4
6,354,bugle.png,nonliving,old,old,1.00715494156,1,8,,3
6,355,guacamole.png,nonliving,old,old,3.07940387726,1,8,,4
6,356,goldnugget.png,nonliving,new,new,1.391507864,1,8,,4
6,357,rollerblade.png,nonliving,old,new,1.27245593071,0,8,,4
6,358,mousepad.png,nonliving,old,old,1.77590203285,1,8,,4
6,359,ring_diamond.png,nonliving,old,new,2.77879619598,0,8,,4
6,360,pretzel.png,nonliving,new,new,2.62807607651,1,8,,4
6,361,handheldMirror.jpg,nonliving,new,new,2.71171998978,1,8,,4
6,362,oven.png,nonliving,old,new,1.70922207832,0,8,,4
6,363,gingerbreadman.jpg,nonliving,old,old,1.70625114441,1,8,,4
6,364,gametable_airhockey.png,nonliving,old,old,2.04048109055,1,8,,4
6,365,lionWalking.png,living,old,new,1.84263420105,0,8,,4
6,366,candy.png,nonliving,old,old,2.47493696213,1,8,,4
6,367,wateringcan.png,nonliving,old,new,1.79277300835,0,8,,4
6,368,chick.png,living,old,old,1.35839295387,1,8,,4
6,369,shield_antique.png,nonliving,old,old,1.55878686905,1,8,,4
6,370,coin.jpg,nonliving,old,old,2.16026592255,1,8,,4
6,371,plate_ceramic.png,nonliving,old,old,0.973912000656,1,8,,4
6,372,snow shoes.png,nonliving,old,new,1.1911110878,0,8,,4
6,373,archery.jpg,nonliving,old,old,1.70921802521,1,8,,4
6,374,hat_tuque.png,nonliving,old,new,1.2580280304,0,8,,4
6,375,diaper changing station.png,nonliving,old,old,1.0068128109,1,8,,4
6,376,ship_battle.png,nonliving,new,new,1.24095606804,1,8,,4
6,377,cane.png,nonliving,old,old,0.957851886749,1,8,,4
6,378,hanger.png,nonliving,old,old,2.81224703789,1,8,,4
6,379,beaver.jpg,living,old,new,1.80950284004,0,8,,4
6,380,cheeseGouda.png,nonliving,old,old,1.99344491959,1,8,,4
6,381,number_3.png,nonliving,old,old,1.10736083984,1,8,,4
6,382,pants.png,nonliving,new,new,1.58922195435,1,8,,4
6,383,bat_baseball.png,nonliving,old,old,1.17418694496,1,8,,1
6,384,headphones.png,nonliving,old,old,3.8652009964,1,8,,4
6,385,ghost.png,nonliving,old,old,1.50866389275,1,8,,4
6,386,pig.png,living,new,new,1.15804505348,1,8,,4
6,387,lawnmower.png,nonliving,old,old,1.1585290432,1,8,,4
6,388,dog_toy.png,nonliving,new,new,1.37522578239,1,8,,4
6,389,mask_hockeygoalie.png,nonliving,old,old,2.92905116081,1,8,,4
6,390,watercooler.png,nonliving,old,new,1.3552479744,0,8,,4
6,391,dryingmachine02.png,nonliving,new,old,1.00707387924,0,8,,4
6,392,sled.png,nonliving,old,old,9.11276602745,1,8,,4
6,393,bicycle.png,nonliving,old,new,1.45854592323,0,8,,4
6,394,fuzzydice.jpg,nonliving,old,new,1.45555496216,0,8,,2
6,395,peppermill.png,nonliving,new,new,1.40846395493,1,8,,4
6,396,goggles_swim.png,nonliving,old,old,1.69248390198,1,8,,1
6,397,ball_8.png,nonliving,old,old,1.80960488319,1,8,,4
6,398,bed.png,nonliving,old,old,1.55865502357,1,8,,4
6,399,tray_icecube.png,nonliving,old,new,1.77581596375,0,8,,4
6,400,sheep.jpg,living,new,new,1.90945911407,1,8,,4
6,401,camera_security.png,nonliving,old,old,1.62562608719,1,8,,4
6,402,dresser.png,nonliving,old,old,1.1574280262,1,8,,4
6,403,mask_black.png,nonliving,old,old,1.40847420692,1,8,,4
6,404,glasses_sun.png,nonliving,old,old,3.14637804031,1,8,,4
6,405,toyStroller.jpg,nonliving,old,old,1.19126605988,1,8,,4
6,406,bowling pin.png,nonliving,new,new,1.19148087502,1,8,,3
6,407,eyeMask.jpg,nonliving,old,old,9.17660593987,1,8,,4
6,408,cookiecutter_bell.png,nonliving,old,old,1.49194383621,1,8,,4
6,409,toy_alien.jpg,nonliving,old,old,1.20759797096,1,8,,4
6,410,dart.jpg,nonliving,old,old,1.52612686157,1,8,,4
6,411,hairband.png,nonliving,old,new,1.30823683739,0,8,,4
6,412,ribbon.jpg,nonliving,old,new,1.82623910904,0,8,,4
6,413,fryingpan.png,nonliving,new,new,1.74289894104,1,8,,4
6,414,diving_board.jpg,nonliving,old,new,1.4920539856,0,8,,4
6,415,razor.png,nonliving,new,new,3.28019189835,1,8,,4
6,416,bowl_cereal.png,nonliving,new,new,1.52509498596,1,8,,4
6,417,poles_ski.png,nonliving,old,old,11.6004230976,1,8,,1
6,418,barrel.png,nonliving,old,old,1.92624306679,1,8,,4
6,419,boxtruck.png,nonliving,old,old,1.57525110245,1,8,,4
6,420,smokingpipe.png,nonliving,old,old,1.05696392059,1,8,,4
6,421,chain_rusty.png,nonliving,old,old,1.3585460186,1,8,,4
6,422,lightbulb.png,nonliving,old,new,1.32483696938,0,8,,2
6,423,lynx.png,living,old,old,3.79808807373,1,8,,3
6,424,fireextinguisher.jpg,nonliving,new,new,1.55854082108,1,8,,3
7,1,bus_doubledecker.png,nonliving,old,old,2.57513618469,1,8,,4
7,2,pylonTraffic.jpg,nonliving,old,old,2.06019711494,1,8,,2
7,3,chest_toys.png,nonliving,old,old,2.44456601143,1,8,,4
7,4,peppermill.png,nonliving,new,new,3.09638309479,1,8,,4
7,5,brush_makeup.png,nonliving,old,old,1.87648010254,1,8,,4
7,6,helicopter.jpg,nonliving,new,new,2.19392895699,1,8,,4
7,7,brush_paint.png,nonliving,old,old,2.3776948452,1,8,,2
7,8,tire_car.png,nonliving,old,old,2.94558095932,1,8,,4
7,9,lipstick.png,nonliving,old,old,2.72856998444,1,8,,4
7,10,fuzzydice.jpg,nonliving,old,old,1.72615718842,1,8,,4
7,11,television.png,nonliving,old,old,0.957376003265,1,8,,4
7,12,lionWalking.png,living,new,new,1.87312698364,1,8,,4
7,13,whale.jpg,living,new,new,1.83986496925,1,8,,4
7,14,poles_ski.png,nonliving,old,old,1.87633514404,1,8,,4
7,15,socks_winter.png,nonliving,old,old,1.57553100586,1,8,,4
7,16,tiger_white.png,living,old,old,2.19382405281,1,8,,2
7,17,dart.jpg,nonliving,old,old,2.25769114494,1,8,,4
7,18,iguana.png,living,new,new,2.14353489876,1,8,,3
7,19,whistle.png,nonliving,old,old,3.2467238903,1,8,,4
7,20,swan.png,living,new,new,1.85661506653,1,8,,4
7,21,dog_leash.jpg,nonliving,old,old,2.2106180191,1,8,,4
7,22,babybottle.jpg,nonliving,old,old,1.40848398209,1,8,,4
7,23,eraser.png,nonliving,old,old,1.02401304245,1,8,,4
7,24,basket_straw.png,nonliving,new,new,1.57561993599,1,8,,4
7,25,firstAidKit.png,nonliving,old,old,1.709223032,1,8,,4
7,26,bowl_cereal.png,nonliving,new,new,1.52523994446,1,8,,4
7,27,flute_wooden.png,nonliving,old,old,3.16298913956,1,8,,2
7,28,bread_unleavened.png,nonliving,old,old,4.21606397629,1,8,,4
7,29,pillow.png,nonliving,old,old,1.34146690369,1,8,,4
7,30,hot pad.jpg,nonliving,new,new,1.78932499886,1,8,,2
7,31,mouse.jpg,living,new,old,4.06573104858,0,8,,4
7,32,crab.png,living,new,new,2.2272400856,1,8,,4
7,33,soap.png,nonliving,old,old,1.75959610939,1,8,,4
7,34,box_chocolate.png,nonliving,old,old,1.8095369339,1,8,,4
7,35,crayon_green.png,nonliving,new,new,2.04343914986,1,8,,4
7,36,chalkboarderaser.png,nonliving,old,old,1.72574400902,1,8,,4
7,37,puzzlepiece.png,nonliving,old,new,1.70929288864,0,8,,4
7,38,clothespin.jpg,nonliving,new,old,2.69516301155,0,8,,4
7,39,kite.png,nonliving,old,old,1.3718931675,1,8,,4
7,40,paddle.png,nonliving,old,old,5.68677091599,1,8,,2
7,41,trophy_man.png,nonliving,old,old,2.54493904114,1,8,,4
7,42,lightbulb.png,nonliving,old,new,1.94318008423,0,8,,4
7,43,birdhouse.png,nonliving,old,old,3.28036999702,1,8,,4
7,44,scissors.png,nonliving,old,old,1.42505407333,1,8,,4
7,45,candy.png,nonliving,old,old,1.05751609802,1,8,,4
7,46,cup.jpg,nonliving,old,old,2.076608181,1,8,,4
7,47,bug_ladybug.png,living,old,old,2.22413611412,1,8,,2
7,48,bagel.png,nonliving,old,old,2.87564396858,1,8,,2
7,49,plasticChairGreen.jpg,nonliving,old,new,2.26135802269,0,8,,4
7,50,letter_mail.png,nonliving,new,new,2.06014609337,1,8,,4
7,51,yarn_ball.png,nonliving,old,old,1.39192700386,1,8,,2
7,52,1bear_polarbear.png,living,new,new,3.43071317673,1,8,,4
7,53,glassBall.jpg,nonliving,old,old,1.94350218773,1,8,,4
7,54,wallet_blackleather.png,nonliving,old,old,2.22726297379,1,8,,4
7,55,oldBook.png,nonliving,old,old,1.00747895241,1,8,,4
7,56,floortile.png,nonliving,old,old,0.953793048859,1,8,,4
7,57,hat_tuque.png,nonliving,old,new,1.91006422043,0,8,,4
7,58,cookiecutter_bell.png,nonliving,old,old,2.07686281204,1,8,,3
7,59,dryingmachine02.png,nonliving,new,new,1.86044883728,1,8,,3
7,60,trafficlight.png,nonliving,old,old,1.7927570343,1,8,,2
7,61,lynx.png,living,new,new,3.51398301125,1,8,,2
7,62,bean bag chair.png,nonliving,new,old,1.6393558979,0,8,,3
7,63,handheldMirror.jpg,nonliving,new,new,2.22733783722,1,8,,2
7,64,macaque.png,living,new,old,2.87931108475,0,8,,3
7,65,mop.png,nonliving,old,old,2.54480099678,1,8,,3
7,66,ship_battle.png,nonliving,new,new,3.72835206985,1,8,,2
7,67,soap_bottle.png,nonliving,old,old,1.90982508659,1,8,,3
7,68,watercooler.png,nonliving,old,old,1.62260007858,1,8,,3
7,69,fork.png,nonliving,old,old,0.940417051315,1,8,,3
7,70,escalator.png,nonliving,old,old,0.840174913406,1,8,,3
7,71,toy_jack-in-the-box.jpg,nonliving,old,old,0.739945888519,1,8,,3
7,72,bumblebee.png,living,new,new,2.87922501564,1,8,,3
7,73,toy_alien.jpg,nonliving,old,old,2.76216578484,1,8,,3
7,74,chair_deck.png,nonliving,old,new,1.44184279442,0,8,,3
7,75,firehydrant.png,nonliving,old,new,1.59244894981,0,8,,3
7,76,clam.png,living,new,new,1.34156298637,1,8,,3
7,77,coin.jpg,nonliving,old,old,2.39136505127,1,8,,2
7,78,clock_digital.png,nonliving,old,old,1.37494301796,1,8,,3
7,79,castle_sand.png,nonliving,new,new,3.71468997002,1,8,,3
7,80,notebook_black.png,nonliving,old,old,3.66471099854,1,8,,2
7,81,pictureframe.png,nonliving,old,new,1.67583703995,0,8,,3
7,82,lollipop.png,nonliving,new,new,1.725908041,1,8,,3
7,83,skates.png,nonliving,old,old,1.07416582108,1,8,,3
7,84,figurine_ballerina.jpg,nonliving,old,old,1.37488293648,1,8,,3
7,85,fryingpan.png,nonliving,new,new,1.25496315956,1,8,,3
7,86,space shuttle.png,nonliving,old,new,2.6114218235,0,8,,2
7,87,backpack.png,nonliving,old,old,1.72598910332,1,8,,3
7,88,beaver.jpg,living,new,new,3.76479411125,1,8,,3
7,89,button_plastic.png,nonliving,new,new,4.90114283562,1,8,,3
7,90,saw.png,nonliving,old,old,1.42209815979,1,8,,3
7,91,bed.png,nonliving,old,old,1.2243950367,1,8,,3
7,92,razor.png,nonliving,new,new,1.85662722588,1,8,,3
7,93,stroller.png,nonliving,old,old,1.2411210537,1,8,,3
7,94,horse.png,living,old,old,3.54758191109,1,8,,2
7,95,smokingpipe.png,nonliving,old,old,1.374792099,1,8,,3
7,96,pretzel.png,nonliving,new,old,1.50834608078,0,8,,1
7,97,lawnmower.png,nonliving,old,old,2.56153988838,1,8,,3
7,98,penguin.png,living,new,new,1.74258780479,1,8,,3
7,99,goggles_swim.png,nonliving,old,old,1.29152679443,1,8,,3
7,100,babysocks.png,nonliving,old,old,2.15709781647,1,8,,3
7,101,guineaPig.png,living,old,new,7.05719590187,0,8,,3
7,102,wolf.png,living,new,new,2.29420399666,1,8,,3
7,103,hose_garden.png,nonliving,old,old,1.30821299553,1,8,,3
7,104,basketballhoop.png,nonliving,old,new,1.94325113297,0,8,,3
7,105,giraffe.png,living,old,new,1.34170007706,0,8,,3
7,106,checkers_board.jpg,nonliving,old,new,1.79283308983,0,8,,3
7,107,tickets.png,nonliving,old,old,1.82314801216,1,8,,3
7,108,dust_pan.png,nonliving,old,new,2.34403896332,0,8,,3
7,109,toilet.png,nonliving,old,new,2.44427919388,0,8,,3
7,110,bucket_halloween.jpg,nonliving,old,old,4.46678781509,1,8,,3
7,111,laces.jpg,nonliving,old,old,1.14075398445,1,8,,3
7,112,toolkit_open.png,nonliving,old,old,1.24149489403,1,8,,3
7,113,sled.png,nonliving,old,old,1.0913131237,1,8,,3
7,114,bathtub.png,nonliving,new,new,1.3580429554,1,8,,3
7,115,comb.png,nonliving,old,old,1.94014716148,1,8,,3
7,116,cashregister.png,nonliving,old,new,1.59244918823,0,8,,3
7,117,wheel barrow.png,nonliving,new,new,2.74560022354,1,8,,3
7,118,mug.png,nonliving,old,old,2.79549407959,1,8,,3
7,119,ball_8.png,nonliving,old,old,1.25798487663,1,8,,3
7,120,tricycle.png,nonliving,old,new,2.52504396439,0,8,,3
7,121,wreath.png,nonliving,old,old,1.40813803673,1,8,,3
7,122,inukshuk.png,nonliving,old,old,1.40515184402,1,8,,3
7,123,gloves_winter.png,nonliving,old,new,2.92903399467,0,8,,3
7,124,package.png,nonliving,new,new,1.95992088318,1,8,,3
7,125,chipmunk.jpg,living,old,new,2.76210999489,0,8,,3
7,126,ruler_triangle.png,nonliving,old,old,1.58923316002,1,8,,3
7,127,hammer.png,nonliving,old,new,1.65933895111,0,8,,3
7,128,dog_food.png,nonliving,old,old,1.50869703293,1,8,,3
7,129,boxtruck.png,nonliving,old,old,2.71210312843,1,8,,2
7,130,hyaena.jpg,living,old,old,4.01558303833,1,8,,3
7,131,bottle_spray.jpg,nonliving,old,new,1.57557702065,0,8,,3
7,132,calculator.png,nonliving,new,new,1.50881004333,1,8,,3
7,133,cheeseGouda.png,nonliving,old,old,1.50863289833,1,8,,3
7,134,ghost.png,nonliving,old,old,1.50868487358,1,8,,3
7,135,pitcher_plastic.png,nonliving,old,new,2.14380216599,0,8,,3
7,136,hat_hard.png,nonliving,old,old,2.79557514191,1,8,,2
7,137,bugle.png,nonliving,old,new,1.94347119331,0,8,,3
7,138,key_car.png,nonliving,old,new,1.75939798355,0,8,,3
7,139,ladder.png,nonliving,old,old,1.67581892014,1,8,,3
7,140,pajamas.png,nonliving,new,new,1.64218187332,1,8,,3
7,141,candycane.jpg,nonliving,old,old,3.64780306816,1,8,,3
7,142,shoe_sneaker.png,nonliving,old,new,2.00710606575,0,8,,3
7,143,cake_cheese.png,nonliving,old,new,2.56155991554,0,8,,3
7,144,goldnugget.png,nonliving,new,new,2.79244399071,1,8,,3
7,145,doghouse.png,nonliving,old,new,1.79277801514,0,8,,3
7,146,bolt.png,nonliving,new,new,1.35839080811,1,8,,3
7,147,gazebo_wooden.png,nonliving,old,new,1.34156107903,0,8,,3
7,148,giftbow01.png,nonliving,old,old,1.77619886398,1,8,,3
7,149,qtip.png,nonliving,old,old,4.18277096748,1,8,,3
7,150,bowtie.jpg,nonliving,old,old,1.45546889305,1,8,,3
7,151,kangaroo.png,living,new,new,1.4249420166,1,8,,3
7,152,ribbon.jpg,nonliving,old,old,1.35829114914,1,8,,3
7,153,scooter.png,nonliving,old,old,1.7759680748,1,8,,3
7,154,ram.png,living,old,old,1.59220790863,1,8,,3
7,155,plate_ceramic.png,nonliving,old,old,2.07696890831,1,8,,3
7,156,waterfountain.png,nonliving,old,old,1.69267201424,1,8,,3
7,157,boots_hiking.png,nonliving,old,new,2.10719418526,0,8,,3
7,158,pirateflag.jpg,nonliving,old,old,2.29405093193,1,8,,3
7,159,paper towel.jpg,nonliving,old,old,1.8095510006,1,8,,3
7,160,hedgehog.png,living,old,old,4.4333422184,1,8,,2
7,161,earrings_dangling.jpg,nonliving,new,new,1.97340488434,1,8,,3
7,162,cautionSignFrench.png,nonliving,old,old,2.0266931057,1,8,,3
7,163,washingmachine.png,nonliving,old,new,5.35297203064,0,8,,3
7,164,ostrich.jpg,living,old,new,5.58652186394,0,8,,2
7,165,vaseDecorativeOriental.jpg,nonliving,new,new,1.97670292854,1,8,,3
7,166,lock_combination.jpg,nonliving,old,new,1.25802779198,0,8,,3
7,167,gingerbreadman.jpg,nonliving,old,old,1.32492613792,1,8,,3
7,168,skirt.jpg,nonliving,old,new,1.14095497131,0,8,,3
7,169,magnifyingglass.png,nonliving,new,old,1.45553398132,0,8,,3
7,170,toys_lego.png,nonliving,old,new,3.01287603378,0,8,,3
7,171,doorbolt.png,nonliving,old,new,1.67592811584,0,8,,3
7,172,shirt_tshirt.png,nonliving,old,new,1.52510404587,0,8,,3
7,173,staircase.jpg,nonliving,old,old,2.7754368782,1,8,,3
7,174,rollerblade.png,nonliving,old,new,3.99845194817,0,8,,3
7,175,quartz.png,nonliving,old,old,3.49748897552,1,8,,3
7,176,pliers.png,nonliving,old,new,2.67854595184,0,8,,3
7,177,card_queenspade.png,nonliving,old,old,1.4251499176,1,8,,3
7,178,sphinx.png,nonliving,new,new,1.30823111534,1,8,,3
7,179,teabag.jpg,nonliving,new,new,1.74259996414,1,8,,3
7,180,diving_board.jpg,nonliving,old,new,1.34156107903,0,8,,3
7,181,watercolorpaintset.png,nonliving,old,old,1.35691308975,1,8,,3
7,182,feather.png,nonliving,old,old,1.25501894951,1,8,,3
7,183,building_door.png,nonliving,old,new,1.2244617939,0,8,,3
7,184,fan.png,nonliving,old,new,1.97655391693,0,8,,3
7,185,shampoo.jpg,nonliving,old,new,1.64272499084,0,8,,3
7,186,rolling pin.jpg,nonliving,old,old,1.67554497719,1,8,,3
7,187,watergun.png,nonliving,old,old,1.42527508736,1,8,,3
7,188,tuxedo.jpg,nonliving,old,new,1.73940205574,0,8,,3
7,189,ring_diamond.png,nonliving,old,new,2.85933089256,0,8,,3
7,190,cinnamonroll.png,nonliving,old,old,2.25759983063,1,8,,3
7,191,truck_tanker.png,nonliving,old,old,6.05498719215,1,8,,2
7,192,wateringcan.png,nonliving,old,new,1.94315814972,0,8,,2
7,193,pool_kiddie.png,nonliving,old,new,1.67558908463,0,8,,3
7,194,dress_blue.jpg,nonliving,old,new,1.68946909904,0,8,,3
7,195,butterfly.png,living,old,new,2.61175704002,0,8,,3
7,196,pencil.png,nonliving,new,new,0.856877088547,1,8,,3
7,197,egg_easter.jpg,nonliving,old,old,2.00999283791,1,8,,3
7,198,rug.png,nonliving,old,old,1.37467098236,1,8,,3
7,199,motorcycle.png,nonliving,old,old,1.39184212685,1,8,,3
7,200,lifejacket.png,nonliving,old,old,1.54185414314,1,8,,3
7,201,grasshopper.png,living,new,new,1.25809693336,1,8,,3
7,202,tiara.png,nonliving,new,new,2.4780318737,1,8,,3
7,203,weights.png,nonliving,old,old,2.57821893692,1,8,,3
7,204,snow globe.png,nonliving,old,old,0.973870992661,1,8,,3
7,205,dog_toy.png,nonliving,new,new,1.75635790825,1,8,,3
7,206,ambulance.png,nonliving,old,old,1.64248180389,1,8,,3
7,207,toothbrush.png,nonliving,old,old,1.14105391502,1,8,,3
7,208,balloon.jpg,nonliving,old,old,0.923865795135,1,8,,3
7,209,chain_rusty.png,nonliving,old,old,0.890315055847,1,8,,3
7,210,dog_bulldog.jpg,living,old,new,2.89242601395,0,8,,2
7,211,hair_scrunchie.png,nonliving,old,old,1.75938200951,1,8,,3
7,212,racoon.jpg,living,old,old,1.50563597679,1,8,,1
7,213,tap_bathroom.jpg,nonliving,old,old,2.59486293793,1,8,,3
7,214,turtle.png,living,new,new,2.15745401382,1,8,,3
7,215,bin_recycling.png,nonliving,old,new,3.66446113586,0,8,,3
7,216,rope_skipping.png,nonliving,old,old,2.82901501656,1,8,,3
7,217,stapler.png,nonliving,old,old,1.92351198196,1,8,,3
7,218,notepad.jpg,nonliving,old,old,1.49199080467,1,8,,3
7,219,number_3.png,nonliving,old,old,1.5255150795,1,8,,3
7,220,bird_toucan.png,living,new,new,3.81504893303,1,8,,3
7,221,dragonfly.png,living,old,old,3.96544694901,1,8,,3
7,222,mitten.png,nonliving,new,new,1.77663803101,1,8,,3
7,223,bird_eagle 2.png,living,new,new,1.4087729454,1,8,,3
7,224,drum_set.png,nonliving,old,old,3.28004002571,1,8,,3
7,225,lizard.png,living,new,new,1.5085208416,1,8,,3
7,226,grillGas.jpg,nonliving,old,old,1.69256711006,1,8,,3
7,227,origamiPaper.png,nonliving,old,old,1.38840293884,1,8,,3
7,228,crown.png,nonliving,old,old,2.05997300148,1,8,,3
7,229,sink.png,nonliving,old,old,3.76497387886,1,8,,3
7,230,pants_firefighter.jpg,nonliving,new,old,1.49197602272,0,8,,1
7,231,necklace_pearl.png,nonliving,old,old,1.60863304138,1,8,,3
7,232,glove_baseball.png,nonliving,old,old,2.76217794418,1,8,,2
7,233,spotlight.png,nonliving,old,old,1.3248360157,1,8,,3
7,234,net_butterfly.jpg,nonliving,old,old,1.0571949482,1,8,,3
7,235,lamp_street.png,nonliving,old,old,1.02404594421,1,8,,3
7,236,megaphone.png,nonliving,old,new,6.55578398705,0,8,,3
7,237,cougar.png,living,new,new,6.22128415108,1,8,,3
7,238,drainplug.png,nonliving,old,new,2.69528579712,0,8,,3
7,239,remotecontrol.png,nonliving,old,old,2.41111493111,1,8,,3
7,240,bag_garbage.png,nonliving,old,old,1.52536606789,1,8,,3
7,241,gun_nerf.jpg,nonliving,old,old,1.48887181282,1,8,,3
7,242,umbrella.png,nonliving,old,new,1.20484900475,0,8,,3
7,243,oven.png,nonliving,old,old,3.0626308918,1,8,,3
7,244,mannequin.jpg,nonliving,old,old,1.22458696365,1,8,,3
7,245,flipflopsBlue.png,nonliving,old,new,1.39155697823,0,8,,3
7,246,caribou.png,living,old,new,1.37481808662,0,8,,3
7,247,pailGarden.png,nonliving,old,new,1.34137415886,0,8,,3
7,248,guacamole.png,nonliving,old,old,2.09044694901,1,8,,3
7,249,walkitalkie.png,nonliving,old,new,2.04321694374,0,8,,2
7,250,camel.png,living,new,new,1.84335899353,1,8,,3
7,251,statue_head.png,nonliving,old,new,4.23280215263,0,8,,3
7,252,pencilsharpener.png,nonliving,old,old,1.80644392967,1,8,,3
7,253,pencilCase.png,nonliving,old,old,4.38327693939,1,8,,3
7,254,fish_rockbass.png,living,new,new,1.05704402924,1,8,,3
7,255,shears_garden.jpg,nonliving,old,old,2.22727513313,1,8,,2
7,256,paddle ball.jpg,nonliving,new,new,1.82294011116,1,8,,3
7,257,fireextinguisher.jpg,nonliving,new,new,1.74275112152,1,8,,3
7,258,tape.png,nonliving,old,old,1.42520499229,1,8,,3
7,259,bells_christmas.png,nonliving,old,old,1.3249001503,1,8,,3
7,260,pants.png,nonliving,new,new,1.45858883858,1,8,,3
7,261,stick_ice hockey.png,nonliving,old,new,1.94339799881,0,8,,3
7,262,boot_rain.png,nonliving,new,new,1.4918050766,1,8,,3
7,263,mask_hockeygoalie.png,nonliving,old,new,0.740302085876,0,8,,3
7,264,dreamcatcher.png,nonliving,new,new,1.1076540947,1,8,,3
7,265,plunger.png,nonliving,old,new,1.09084105492,0,8,,3
7,266,bat_baseball.png,nonliving,old,new,0.789818048477,0,8,,3
7,267,pacifier.png,nonliving,old,old,1.47530198097,1,8,,3
7,268,sword.png,nonliving,old,old,1.04089713097,1,8,,3
7,269,towel.png,nonliving,old,new,1.42495799065,0,8,,3
7,270,dresser.png,nonliving,old,old,2.12676095963,1,8,,3
7,271,cloud.png,nonliving,old,new,1.49201798439,0,8,,1
7,272,thumbtack.png,nonliving,old,old,1.47522521019,1,8,,3
7,273,potFlowerClay.png,nonliving,old,new,2.90947508812,0,8,,3
7,274,panda.jpg,living,old,old,2.29395198822,1,8,,3
7,275,milk_shake.jpg,nonliving,old,old,2.59500408173,1,8,,3
7,276,flamingo.png,living,old,new,1.42517518997,0,8,,3
7,277,knife_butter.png,nonliving,old,new,1.75946593285,0,8,,3
7,278,giftbox.jpg,nonliving,old,new,1.02380490303,0,8,,3
7,279,mousepad.png,nonliving,old,new,0.907146930695,0,8,,3
7,280,buffalo.png,living,new,new,0.923754930496,1,8,,3
7,281,water well.png,nonliving,new,new,0.773490905762,1,8,,3
7,282,mask_black.png,nonliving,old,new,0.656188011169,0,8,,3
7,283,boat.png,nonliving,new,new,1.10769891739,1,8,,3
7,284,fish_swordfish.png,living,old,old,1.62566709518,1,8,,2
7,285,playground.png,nonliving,old,new,6.67282509804,0,8,,3
7,286,shield_antique.png,nonliving,old,old,1.75941419601,1,8,,3
7,287,pig.png,living,old,new,1.45848798752,0,8,,3
7,288,worldmap.png,nonliving,old,old,2.02339792252,1,8,,3
7,289,eyeMask.jpg,nonliving,old,old,2.52813887596,1,8,,3
7,290,toyStroller.jpg,nonliving,old,old,1.05790901184,1,8,,3
7,291,bib.png,nonliving,new,new,1.55901408195,1,8,,3
7,292,tissuebox.png,nonliving,new,old,1.14072489738,0,8,,1
7,293,spoons_measuring.jpg,nonliving,old,old,2.01019215584,1,8,,3
7,294,camera_security.png,nonliving,old,old,1.04082894325,1,8,,3
7,295,flashlight.png,nonliving,old,old,1.15777397156,1,8,,3
7,296,pan_muffin.png,nonliving,new,new,1.45866894722,1,8,,3
7,297,starfish.png,living,new,new,2.34444594383,1,8,,3
7,298,zebra.jpg,living,old,new,1.22436904907,0,8,,3
7,299,windowblinds.png,nonliving,old,old,1.27151608467,1,8,,3
7,300,caterpillar_green.png,living,old,old,1.24121594429,1,8,,3
7,301,crutches.jpg,nonliving,old,new,1.44201302528,0,8,,3
7,302,Baby-Bunny-Wallpaper-Free-Download.png,living,new,new,1.32491111755,1,8,,3
7,303,sheep.jpg,living,old,new,1.95987796783,0,8,,3
7,304,wirebeadmaze.png,nonliving,old,old,1.34129405022,1,8,,3
7,305,squid.jpg,living,old,new,1.12408590317,0,8,,3
7,306,antlerheadband.png,nonliving,old,new,1.79291796684,0,8,,3
7,307,candelabra.jpg,nonliving,new,new,2.64522790909,1,8,,3
7,308,whisk_electric.jpg,nonliving,old,new,0.539376020432,0,8,,3
7,309,shelf_book.png,nonliving,new,new,1.25471806526,1,8,,3
7,310,domino.png,nonliving,old,old,2.14366197586,1,8,,3
7,311,1bird_canadiangoose.jpg,living,old,new,1.90979790688,0,8,,3
7,312,tomato sauce.jpg,nonliving,new,old,2.42457509041,0,8,,1
7,313,goat.png,living,old,new,2.12706279755,0,8,,3
7,314,tablePingPong.jpg,nonliving,old,old,1.3747279644,1,8,,2
7,315,thermometer.png,nonliving,old,old,3.43061900139,1,8,,3
7,316,drinkingfountain.png,nonliving,old,old,4.7978579998,1,8,,2
7,317,horn_french.png,nonliving,old,old,1.25803899765,1,8,,3
7,318,ball_baseball.png,nonliving,old,new,2.16119289398,0,8,,3
7,319,donutFloaty.png,nonliving,old,old,1.55866098404,1,8,,3
7,320,match.png,nonliving,old,old,2.42788696289,1,8,,3
7,321,seal_animal.png,living,new,new,3.04628705978,1,8,,3
7,322,clip_paper.png,nonliving,old,old,1.47528600693,1,8,,3
7,323,perfume.png,nonliving,old,new,2.64197802544,0,8,,3
7,324,paintcan.jpg,nonliving,old,new,1.67583680153,0,8,,3
7,325,barrel.png,nonliving,old,old,1.1075129509,1,8,,3
7,326,bowling pin.png,nonliving,new,old,1.0574221611,0,8,,2
7,327,tray_icecube.png,nonliving,old,new,1.30790495872,0,8,,3
7,328,shrimp.png,nonliving,old,old,2.75881385803,1,8,,3
7,329,belt.png,nonliving,old,new,1.89293503761,0,8,,3
7,330,cookie_jar.jpg,nonliving,old,old,2.34430193901,1,8,,3
7,331,kitchen sink.jpg,nonliving,old,new,8.42737603188,0,8,,3
7,332,pyramid.png,nonliving,old,old,1.24128293991,1,8,,3
7,333,piano_keyboard.png,nonliving,old,new,2.2775118351,0,8,,3
7,334,stoveAntique.jpg,nonliving,old,new,1.57563114166,0,8,,3
7,335,chips.png,nonliving,old,old,1.59230208397,1,8,,3
7,336,boar.png,living,old,new,2.14380502701,0,8,,3
7,337,sandwich_egg.png,nonliving,old,old,1.24138998985,1,8,,3
7,338,croissant.png,nonliving,old,old,1.49178290367,1,8,,3
7,339,hairband.png,nonliving,old,old,1.35834908485,1,8,,3
7,340,snorkle.jpg,nonliving,old,old,1.00711607933,1,8,,3
7,341,globe.png,nonliving,old,new,1.5589261055,0,8,,2
7,342,pin_clothes.png,nonliving,old,new,2.54179096222,0,8,,2
7,343,handbag.png,nonliving,new,new,1.70936608315,1,8,,3
7,344,napkin_ring.png,nonliving,new,new,1.44156908989,1,8,,3
7,345,pen.png,nonliving,old,new,0.940572977066,0,8,,3
7,346,cow.png,living,old,new,1.2246928215,0,8,,3
7,347,plain_rice.jpg,nonliving,old,new,0.873647928238,0,8,,3
7,348,ice cubes.png,nonliving,old,new,1.22467899323,0,8,,3
7,349,watch.png,nonliving,new,new,0.756638050079,1,8,,3
7,350,microwave.png,nonliving,old,new,2.06043410301,0,8,,3
7,351,dolphin.png,living,new,new,0.957262992859,1,8,,3
7,352,toy_slinky.png,nonliving,old,old,2.47823190689,1,8,,3
7,353,electricoutlet.png,nonliving,old,new,1.03744912148,0,8,,3
7,354,cane.png,nonliving,old,new,0.572899103165,0,8,,3
7,355,cat.png,living,new,new,0.956779003143,1,8,,3
7,356,puppettheatre.png,nonliving,old,old,1.42178010941,1,8,,3
7,357,swing set.jpg,nonliving,old,new,1.55578303337,0,8,,3
7,358,sign_washroom.png,nonliving,old,old,1.2592189312,1,8,,3
7,359,glueGun.jpg,nonliving,new,new,2.6283159256,1,8,,3
7,360,car_FerrariRed.jpg,nonliving,old,old,5.55292081833,1,8,,3
7,361,cake_wedding.png,nonliving,old,new,2.90944886208,0,8,,2
7,362,toad.png,living,old,old,1.42526912689,1,8,,3
7,363,chick.png,living,new,new,2.32768011093,1,8,,3
7,364,owl.png,living,old,old,2.32753705978,1,8,,3
7,365,elephant.png,living,old,old,7.75881695747,1,8,,2
7,366,compass.png,nonliving,old,old,1.39128899574,1,8,,3
7,367,toothpaste.png,nonliving,old,new,1.84306693077,0,8,,2
7,368,arch.png,nonliving,new,new,1.80957388878,1,8,,3
7,369,snow shoes.png,nonliving,old,old,1.9598710537,1,8,,3
7,370,coffeepot.png,nonliving,old,new,2.07385993004,0,8,,3
7,371,spiderweb.png,nonliving,old,old,3.99867796898,1,8,,3
7,372,portapotty.png,nonliving,new,new,3.56472611427,1,8,,3
7,373,squirrel.jpg,living,old,new,4.85121798515,0,8,,3
7,374,bicycle.png,nonliving,old,old,1.90949106216,1,8,,3
7,375,garbageBin.jpg,nonliving,old,old,2.84572696686,1,8,,3
7,376,noisemaker.jpg,nonliving,old,new,7.57199501991,0,8,,2
7,377,costume_wizard.jpg,nonliving,old,old,1.57250380516,1,8,,2
7,378,macaroni.png,nonliving,old,old,1.44186496735,1,8,,3
7,379,champagne.jpg,nonliving,new,new,3.03007698059,1,8,,3
7,380,bandage.jpg,nonliving,old,old,1.52216911316,1,8,,3
7,381,telescope.png,nonliving,old,old,9.11278796196,1,8,,2
7,382,candydispenser.png,nonliving,old,old,1.34138584137,1,8,,3
7,383,archery.jpg,nonliving,old,new,2.64523100853,0,8,,3
7,384,binoculars.png,nonliving,old,old,2.17399716377,1,8,,3
7,385,englishmuffin.png,nonliving,old,old,1.35497498512,1,8,,3
7,386,guitar_electric.png,nonliving,new,old,1.05760192871,0,8,,1
7,387,rope.png,nonliving,new,new,4.23287677765,1,8,,3
7,388,bench_park.png,nonliving,old,old,1.09092116356,1,8,,3
7,389,doublebass.png,nonliving,old,new,1.08773517609,0,8,,3
7,390,partyDress.png,nonliving,old,old,1.95996308327,1,8,,3
7,391,statue_metal_man.jpg,nonliving,old,new,3.19669508934,0,8,,3
7,392,bucket_antique.png,nonliving,old,new,1.40840697289,0,8,,3
7,393,table_side.jpg,nonliving,new,new,1.02393484116,1,8,,3
7,394,seahorse.png,living,new,new,1.77604293823,1,8,,3
7,395,gametable_airhockey.png,nonliving,old,new,2.09370183945,0,8,,2
7,396,bottle_plasticwater.png,nonliving,old,new,1.92659115791,0,8,,3
7,397,hat_party.png,nonliving,old,old,3.48076796532,1,8,,3
7,398,outhouse.png,nonliving,old,old,1.30510783195,1,8,,3
7,399,glasses_sun.png,nonliving,old,old,1.30824899673,1,8,,3
7,400,headphones.png,nonliving,old,new,1.69255304337,0,8,,3
7,401,sundae_banana.png,nonliving,old,new,1.87654781342,0,8,,2
7,402,carton_eggs.png,nonliving,old,old,2.54147195816,1,8,,3
7,403,boxingGloves.png,nonliving,old,new,2.72846698761,0,8,,2
7,404,candle.png,nonliving,old,new,2.24399495125,0,8,,3
7,405,diaper changing station.png,nonliving,old,new,3.07626795769,0,8,,2
7,406,lobster.png,living,new,new,5.11861491203,1,8,,3
7,407,shoe_pumps.jpg,nonliving,old,new,2.74512505531,0,8,,3
7,408,toy_truck.jpg,nonliving,old,new,2.29387307167,0,8,,3
7,409,playdoh.png,nonliving,old,old,1.37496590614,1,8,,3
7,410,hanger.png,nonliving,old,new,4.76768302917,0,8,,3
7,411,drill.png,nonliving,old,new,1.50872898102,0,8,,3
7,412,wheel_steering.jpg,nonliving,new,new,4.19936800003,1,8,,3
7,413,hoodieGray.jpg,nonliving,old,new,1.10869908333,0,8,,3
7,414,hairdryer.png,nonliving,old,new,0.773440122604,0,8,,3
7,415,loofah.png,nonliving,old,new,1.72598099709,0,8,,3
7,416,paddle_bread.png,nonliving,old,new,0.873699188232,0,8,,3
