participant,trialNo,stimulus,classifyEnc,resp,rt,acc,age,handedness,sex,group
4,1,shoe_sneaker.png,nonliving,k,1.13737487793,1,9,right,F,Children
4,2,starfish.png,living,k,0.856360197067,0,9,right,F,Children
4,3,smokingpipe.png,nonliving,"",,0,9,right,F,Children
4,4,hairband.png,nonliving,k,0.0544271469116,1,9,right,F,Children
4,5,tray_icecube.png,nonliving,k,0.638453960419,1,9,right,F,Children
4,6,earrings_dangling.jpg,nonliving,k,1.00672197342,1,9,right,F,Children
4,7,sink.png,nonliving,k,0.839699983597,1,9,right,F,Children
4,8,fireextinguisher.jpg,nonliving,k,0.538820028305,1,9,right,F,Children
4,9,fryingpan.png,nonliving,k,0.923215866089,1,9,right,F,Children
4,10,bumblebee.png,living,j,0.619580030441,1,9,right,F,Children
4,11,thumbtack.png,nonliving,k,0.639184951782,1,9,right,F,Children
4,12,tuxedo.jpg,nonliving,k,0.823213815689,1,9,right,F,Children
4,13,mug.png,nonliving,k,0.572490930557,1,9,right,F,Children
4,14,notebook_black.png,nonliving,k,0.769664049149,1,9,right,F,Children
4,15,cookiecutter_bell.png,nonliving,k,0.488768100739,1,9,right,F,Children
4,16,letter_mail.png,nonliving,k,0.505704879761,1,9,right,F,Children
4,17,snow globe.png,nonliving,k,0.572376012802,1,9,right,F,Children
4,18,fuzzydice.jpg,nonliving,k,0.873137950897,1,9,right,F,Children
4,19,drinkingfountain.png,nonliving,k,0.555715084076,1,9,right,F,Children
4,20,megaphone.png,nonliving,k,0.605715990067,1,9,right,F,Children
4,21,quartz.png,nonliving,k,1.09040212631,1,9,right,F,Children
4,22,boots_hiking.png,nonliving,k,0.923094034195,1,9,right,F,Children
4,23,dog_leash.jpg,nonliving,k,0.555742025375,1,9,right,F,Children
4,24,rope_skipping.png,nonliving,k,0.622427940369,1,9,right,F,Children
4,25,weights.png,nonliving,k,0.923475980759,1,9,right,F,Children
4,26,perfume.png,nonliving,k,0.92329621315,1,9,right,F,Children
4,27,building_door.png,nonliving,k,0.722946882248,1,9,right,F,Children
4,28,candelabra.jpg,nonliving,k,0.656024217606,1,9,right,F,Children
4,29,chalkboarderaser.png,nonliving,k,0.589091062546,1,9,right,F,Children
4,30,tap_bathroom.jpg,nonliving,k,0.572232961655,1,9,right,F,Children
4,31,lawnmower.png,nonliving,k,1.05400204659,1,9,right,F,Children
4,32,pencilsharpener.png,nonliving,k,0.706108093262,1,9,right,F,Children
4,33,partyDress.png,nonliving,k,1.24079608917,1,9,right,F,Children
4,34,pan_muffin.png,nonliving,k,0.722908973694,1,9,right,F,Children
4,35,garbageBin.jpg,nonliving,k,0.622583866119,1,9,right,F,Children
4,36,ghost.png,nonliving,k,0.555557012558,1,9,right,F,Children
4,37,headphones.png,nonliving,k,0.806379079819,1,9,right,F,Children
4,38,macaque.png,living,j,0.639097929001,1,9,right,F,Children
4,39,mask_black.png,nonliving,k,0.789585113525,1,9,right,F,Children
4,40,gloves_winter.png,nonliving,k,0.622628927231,1,9,right,F,Children
4,41,pajamas.png,nonliving,k,0.906579017639,1,9,right,F,Children
4,42,watch.png,nonliving,k,0.689344882965,1,9,right,F,Children
4,43,pylonTraffic.jpg,nonliving,k,0.739329814911,1,9,right,F,Children
4,44,calculator.png,nonliving,k,0.569361925125,1,9,right,F,Children
4,45,whisk_electric.jpg,nonliving,k,0.538863897324,1,9,right,F,Children
4,46,flute_wooden.png,nonliving,k,0.589155912399,1,9,right,F,Children
4,47,wheel_steering.jpg,nonliving,k,0.856683015823,1,9,right,F,Children
4,48,compass.png,nonliving,k,0.739146947861,1,9,right,F,Children
4,49,hoodieGray.jpg,nonliving,k,0.689332962036,1,9,right,F,Children
4,50,dolphin.png,living,j,0.806335926056,1,9,right,F,Children
4,51,car_FerrariRed.jpg,nonliving,k,1.14049816132,1,9,right,F,Children
4,52,bathtub.png,nonliving,k,0.823873996735,1,9,right,F,Children
4,53,bed.png,nonliving,k,0.502737045288,1,9,right,F,Children
4,54,remotecontrol.png,nonliving,k,0.471983909607,1,9,right,F,Children
4,55,goldnugget.png,nonliving,k,0.505664825439,1,9,right,F,Children
4,56,spotlight.png,nonliving,k,0.689277887344,1,9,right,F,Children
4,57,card_queenspade.png,nonliving,k,0.736525058746,1,9,right,F,Children
4,58,piano_keyboard.png,nonliving,k,0.6226811409,1,9,right,F,Children
4,59,helicopter.jpg,nonliving,k,1.24073505402,1,9,right,F,Children
4,60,lizard.png,living,j,0.739477157593,1,9,right,F,Children
4,61,swing set.jpg,nonliving,k,0.502664089203,1,9,right,F,Children
4,62,penguin.png,living,j,0.639224052429,1,9,right,F,Children
4,63,camel.png,living,j,0.622530937195,1,9,right,F,Children
4,64,glueGun.jpg,nonliving,k,0.605844974518,1,9,right,F,Children
4,65,cougar.png,living,k,0.736536979675,0,9,right,F,Children
4,66,basket_straw.png,nonliving,k,0.873163938522,1,9,right,F,Children
4,67,scooter.png,nonliving,k,0.6393430233,1,9,right,F,Children
4,68,rope.png,nonliving,k,0.522307872772,1,9,right,F,Children
4,69,waterfountain.png,nonliving,k,0.455478191376,1,9,right,F,Children
4,70,lobster.png,living,j,0.622670888901,1,9,right,F,Children
4,71,cane.png,nonliving,k,0.505527019501,1,9,right,F,Children
4,72,dresser.png,nonliving,k,0.78960108757,1,9,right,F,Children
4,73,doublebass.png,nonliving,k,0.639471054077,1,9,right,F,Children
4,74,ribbon.jpg,nonliving,k,0.619595050812,1,9,right,F,Children
4,75,rolling pin.jpg,nonliving,k,0.639142036438,1,9,right,F,Children
4,76,drum_set.png,nonliving,k,0.522238969803,1,9,right,F,Children
4,77,teapot.png,nonliving,k,0.605932950974,1,9,right,F,Children
4,78,cup.jpg,nonliving,k,0.837113142014,1,9,right,F,Children
4,79,babybottle.jpg,nonliving,k,0.722909927368,1,9,right,F,Children
4,80,bucket_halloween.jpg,nonliving,k,0.639140844345,1,9,right,F,Children
4,81,rollerblade.png,nonliving,k,0.57222700119,1,9,right,F,Children
4,82,pin_clothes.png,nonliving,k,0.622569084167,1,9,right,F,Children
4,83,chick.png,living,j,0.72313117981,1,9,right,F,Children
4,84,rug.png,nonliving,k,0.655997037888,1,9,right,F,Children
4,85,pants.png,nonliving,k,0.639273881912,1,9,right,F,Children
4,86,lynx.png,living,j,0.67258310318,1,9,right,F,Children
4,87,swan.png,living,j,0.639317035675,1,9,right,F,Children
4,88,plain_rice.jpg,nonliving,k,0.840010881424,1,9,right,F,Children
4,89,egg_easter.jpg,nonliving,k,0.73943901062,1,9,right,F,Children
4,90,boxtruck.png,nonliving,k,0.605874061584,1,9,right,F,Children
4,91,bandage.jpg,nonliving,k,0.686494827271,1,9,right,F,Children
4,92,tiara.png,nonliving,k,0.65595293045,1,9,right,F,Children
4,93,microwave.png,nonliving,k,0.689311981201,1,9,right,F,Children
4,94,seahorse.png,living,j,0.990287065506,1,9,right,F,Children
4,95,paddle.png,nonliving,k,0.736598968506,1,9,right,F,Children
4,96,dress_blue.jpg,nonliving,k,0.572355031967,1,9,right,F,Children
4,97,pretzel.png,nonliving,k,0.689337968826,1,9,right,F,Children
4,98,guitar_electric.png,nonliving,k,0.772831916809,1,9,right,F,Children
4,99,whale.jpg,living,j,0.656368970871,1,9,right,F,Children
4,100,lightbulb.png,nonliving,k,0.589152097702,1,9,right,F,Children
4,101,wateringcan.png,nonliving,j,0.371886014938,0,9,right,F,Children
4,102,domino.png,nonliving,k,0.622461080551,1,9,right,F,Children
4,103,vaseDecorativeOriental.jpg,nonliving,k,0.505668878555,1,9,right,F,Children
4,104,towel.png,nonliving,k,0.605835914612,1,9,right,F,Children
4,105,yarn_ball.png,nonliving,k,0.639064073563,1,9,right,F,Children
4,106,backpack.png,nonliving,k,0.622574090958,1,9,right,F,Children
4,107,wreath.png,nonliving,k,0.639085054398,1,9,right,F,Children
4,108,stoveAntique.jpg,nonliving,k,0.669823884964,1,9,right,F,Children
4,109,gun_nerf.jpg,nonliving,k,0.923706054688,1,9,right,F,Children
4,110,horn_french.png,nonliving,k,0.672608137131,1,9,right,F,Children
4,111,bench_park.png,nonliving,k,0.656169891357,1,9,right,F,Children
4,112,dog_food.png,nonliving,k,0.586180925369,1,9,right,F,Children
4,113,walkitalkie.png,nonliving,k,0.504858016968,1,9,right,F,Children
4,114,fork.png,nonliving,k,0.689558029175,1,9,right,F,Children
4,115,clam.png,living,k,0.589513063431,0,9,right,F,Children
4,116,thermometer.png,nonliving,k,0.672922134399,1,9,right,F,Children
4,117,hose_garden.png,nonliving,k,0.488919973373,1,9,right,F,Children
4,118,birdhouse.png,nonliving,k,0.622474908829,1,9,right,F,Children
4,119,belt.png,nonliving,k,0.505598068237,1,9,right,F,Children
4,120,dryingmachine02.png,nonliving,k,0.488928079605,1,9,right,F,Children
4,121,crown.png,nonliving,k,0.352385997772,1,9,right,F,Children
4,122,water well.png,nonliving,k,0.438736200333,1,9,right,F,Children
4,123,brush_paint.png,nonliving,k,0.522339105606,1,9,right,F,Children
4,124,clock_digital.png,nonliving,k,0.756287813187,1,9,right,F,Children
4,125,cheeseGouda.png,nonliving,k,0.686456203461,1,9,right,F,Children
4,126,mask_hockeygoalie.png,nonliving,k,0.772936105728,1,9,right,F,Children
4,127,englishmuffin.png,nonliving,k,0.689429998398,1,9,right,F,Children
4,128,radioclock.jpg,nonliving,k,0.622414827347,1,9,right,F,Children
4,129,bolt.png,nonliving,k,0.672696828842,1,9,right,F,Children
4,130,cake_wedding.png,nonliving,k,0.705985069275,1,9,right,F,Children
4,131,giftbox.jpg,nonliving,k,0.586138010025,1,9,right,F,Children
4,132,snow shoes.png,nonliving,k,0.469321012497,1,9,right,F,Children
4,133,match.png,nonliving,k,0.555833101273,1,9,right,F,Children
4,134,basketballhoop.png,nonliving,k,0.739384174347,1,9,right,F,Children
4,135,number_3.png,nonliving,k,0.889695882797,1,9,right,F,Children
4,136,button_plastic.png,nonliving,k,0.622486114502,1,9,right,F,Children
4,137,bird_toucan.png,living,j,0.756330966949,1,9,right,F,Children
4,138,bag_garbage.png,nonliving,k,0.639219999313,1,9,right,F,Children
4,139,stroller.png,nonliving,k,0.589263916016,1,9,right,F,Children
4,140,motorcycle.png,nonliving,k,0.655971050262,1,9,right,F,Children
4,141,costume_wizard.jpg,nonliving,k,0.689263820648,1,9,right,F,Children
4,142,kite.png,nonliving,k,0.619666099548,1,9,right,F,Children
4,143,playground.png,nonliving,k,0.740149974823,1,9,right,F,Children
4,144,archery.jpg,nonliving,k,0.756300926208,1,9,right,F,Children
4,145,clothespin.jpg,nonliving,k,0.78676700592,1,9,right,F,Children
4,146,ship_battle.png,nonliving,k,0.702884912491,1,9,right,F,Children
4,147,checkers_board.jpg,nonliving,k,0.689681053162,1,9,right,F,Children
4,148,champagne.jpg,nonliving,k,0.656148195267,1,9,right,F,Children
4,149,lock_combination.jpg,nonliving,k,0.63933801651,1,9,right,F,Children
4,150,dog_toy.png,nonliving,k,0.689381122589,1,9,right,F,Children
4,151,donutFloaty.png,nonliving,k,0.956640958786,1,9,right,F,Children
4,152,pants_firefighter.jpg,nonliving,k,0.589203119278,1,9,right,F,Children
4,153,whistle.png,nonliving,k,0.672603845596,1,9,right,F,Children
4,154,toothpaste.png,nonliving,k,0.605636119843,1,9,right,F,Children
4,155,statue_head.png,nonliving,k,0.589335918427,1,9,right,F,Children
4,156,boat.png,nonliving,k,0.639132022858,1,9,right,F,Children
4,157,skates.png,nonliving,k,0.78977894783,1,9,right,F,Children
4,158,flashlight.png,nonliving,k,1.04021406174,1,9,right,F,Children
4,159,paintcan.jpg,nonliving,k,0.990383148193,1,9,right,F,Children
4,160,mitten.png,nonliving,k,0.906435012817,1,9,right,F,Children
4,161,ladder.png,nonliving,k,0.789572000504,1,9,right,F,Children
4,162,cloud.png,nonliving,k,0.823056936264,1,9,right,F,Children
4,163,candle.png,nonliving,k,0.823275089264,1,9,right,F,Children
4,164,sundae_banana.png,nonliving,k,0.689262866974,1,9,right,F,Children
4,165,stick_ice hockey.png,nonliving,k,0.602894067764,1,9,right,F,Children
4,166,puppettheatre.png,nonliving,k,0.471881866455,1,9,right,F,Children
4,167,slide_children.png,nonliving,k,0.521904945374,1,9,right,F,Children
4,168,staircase.jpg,nonliving,k,0.555876016617,1,9,right,F,Children
4,169,watercooler.png,nonliving,k,1.12412977219,1,9,right,F,Children
4,170,cat.png,living,j,0.756293058395,1,9,right,F,Children
4,171,clip_paper.png,nonliving,k,0.589137077332,1,9,right,F,Children
4,172,1bear_polarbear.png,living,j,0.555842161179,1,9,right,F,Children
4,173,firstAidKit.png,nonliving,k,0.589171886444,1,9,right,F,Children
4,174,concreteblock.png,nonliving,k,0.572228908539,1,9,right,F,Children
4,175,beaver.jpg,living,j,0.572397947311,1,9,right,F,Children
4,176,pliers.png,nonliving,k,0.502708911896,1,9,right,F,Children
4,177,package.png,nonliving,k,0.53882598877,1,9,right,F,Children
4,178,babysocks.png,nonliving,k,0.57201385498,1,9,right,F,Children
4,179,peppermill.png,nonliving,k,0.455572128296,1,9,right,F,Children
4,180,crutches.jpg,nonliving,k,0.338274002075,1,9,right,F,Children
4,181,pencil.png,nonliving,k,0.572288990021,1,9,right,F,Children
4,182,shears_garden.jpg,nonliving,k,0.455497026443,1,9,right,F,Children
4,183,gingerbreadman.jpg,nonliving,k,0.605746984482,1,9,right,F,Children
4,184,shrimp.png,nonliving,j,0.872936964035,0,9,right,F,Children
4,185,drill.png,nonliving,k,0.689628124237,1,9,right,F,Children
4,186,carton_eggs.png,nonliving,k,0.589173078537,1,9,right,F,Children
4,187,floortile.png,nonliving,k,0.538845062256,1,9,right,F,Children
4,188,bib.png,nonliving,k,0.522326946259,1,9,right,F,Children
4,189,cashregister.png,nonliving,k,0.45266699791,1,9,right,F,Children
4,190,bagel.png,nonliving,k,0.48893904686,1,9,right,F,Children
4,191,hair_scrunchie.png,nonliving,k,0.572458982468,1,9,right,F,Children
4,192,macaroni.png,nonliving,k,0.505504846573,1,9,right,F,Children
4,193,pen.png,nonliving,k,0.436180830002,1,9,right,F,Children
4,194,television.png,nonliving,k,0.756384849548,1,9,right,F,Children
4,195,castle_sand.png,nonliving,k,0.656075000763,1,9,right,F,Children
4,196,worldmap.png,nonliving,k,0.505470991135,1,9,right,F,Children
4,197,ball_baseball.png,nonliving,k,0.522245883942,1,9,right,F,Children
4,198,lionWalking.png,living,j,0.672594070435,1,9,right,F,Children
4,199,ring_diamond.png,nonliving,k,0.538931846619,1,9,right,F,Children
4,200,sphinx.png,nonliving,k,0.83676981926,1,9,right,F,Children
4,201,cautionSignFrench.png,nonliving,k,0.736276865005,1,9,right,F,Children
4,202,watergun.png,nonliving,k,0.68942284584,1,9,right,F,Children
4,203,inukshuk.png,nonliving,k,0.472239017487,1,9,right,F,Children
4,204,dust_pan.png,nonliving,k,0.589093923569,1,9,right,F,Children
4,205,pirateflag.jpg,nonliving,k,0.672533988953,1,9,right,F,Children
4,206,bowtie.jpg,nonliving,k,0.656080961227,1,9,right,F,Children
4,207,goggles_swim.png,nonliving,k,0.538651943207,1,9,right,F,Children
4,208,buffalo.png,living,j,0.722876787186,1,9,right,F,Children
4,209,Baby-Bunny-Wallpaper-Free-Download.png,living,j,0.722853899002,1,9,right,F,Children
4,210,globe.png,nonliving,k,0.605408906937,1,9,right,F,Children
4,211,ball_8.png,nonliving,k,0.539052009583,1,9,right,F,Children
4,212,cake_cheese.png,nonliving,k,0.605897188187,1,9,right,F,Children
4,213,glasses_sun.png,nonliving,k,0.555682897568,1,9,right,F,Children
4,214,noisemaker.jpg,nonliving,k,0.636295080185,1,9,right,F,Children
4,215,bottle_spray.jpg,nonliving,k,0.43868303299,1,9,right,F,Children
4,216,tricycle.png,nonliving,k,0.60605096817,1,9,right,F,Children
4,217,loofah.png,nonliving,k,0.488837003708,1,9,right,F,Children
4,218,candycane.jpg,nonliving,k,0.538977861404,1,9,right,F,Children
4,219,gum_pack.png,nonliving,k,0.522281169891,1,9,right,F,Children
4,220,turtle.png,living,j,0.772944927216,1,9,right,F,Children
4,221,giftbow01.png,nonliving,k,0.739523172379,1,9,right,F,Children
4,222,bird_eagle 2.png,living,j,0.722845077515,1,9,right,F,Children
4,223,grasshopper.png,living,j,0.622604846954,1,9,right,F,Children
4,224,spoons_measuring.jpg,nonliving,k,0.653045892715,1,9,right,F,Children
4,225,skirt.jpg,nonliving,k,0.57236790657,1,9,right,F,Children
4,226,shelf_book.png,nonliving,k,0.53889298439,1,9,right,F,Children
4,227,paper towel.jpg,nonliving,k,0.669715881348,1,9,right,F,Children
4,228,mannequin.jpg,nonliving,k,0.605527877808,1,9,right,F,Children
4,229,coffeepot.png,nonliving,k,0.756255149841,1,9,right,F,Children
4,230,guacamole.png,nonliving,k,0.839756011963,1,9,right,F,Children
4,231,diaper changing station.png,nonliving,k,0.820414066315,1,9,right,F,Children
4,232,napkin_ring.png,nonliving,k,0.689368963242,1,9,right,F,Children
4,233,handbag.png,nonliving,k,0.723155975342,1,9,right,F,Children
4,234,telescope.png,nonliving,k,0.906352043152,1,9,right,F,Children
4,235,figurine_ballerina.jpg,nonliving,k,0.68941116333,1,9,right,F,Children
4,236,portapotty.png,nonliving,k,0.606116056442,1,9,right,F,Children
4,237,binoculars.png,nonliving,k,0.552500963211,1,9,right,F,Children
4,238,umbrella.png,nonliving,k,0.438600063324,1,9,right,F,Children
4,239,feather.png,nonliving,k,0.99031996727,1,9,right,F,Children
4,240,fish_rockbass.png,living,j,0.823086023331,1,9,right,F,Children
4,241,bowling pin.png,nonliving,k,0.505486011505,1,9,right,F,Children
4,242,sandwich_egg.png,nonliving,k,0.720031023026,1,9,right,F,Children
4,243,diving_board.jpg,nonliving,k,0.739570856094,1,9,right,F,Children
4,244,knife_butter.png,nonliving,k,0.786730051041,1,9,right,F,Children
4,245,toy_alien.jpg,nonliving,k,0.706182003021,1,9,right,F,Children
4,246,bean bag chair.png,nonliving,k,0.706117153168,1,9,right,F,Children
4,247,escalator.png,nonliving,k,0.45543384552,1,9,right,F,Children
4,248,chest_toys.png,nonliving,k,0.672894001007,1,9,right,F,Children
4,249,mop.png,nonliving,k,0.639054059982,1,9,right,F,Children
4,250,spiderweb.png,nonliving,k,0.622479915619,1,9,right,F,Children
4,251,net_butterfly.jpg,nonliving,k,0.55591583252,1,9,right,F,Children
4,252,shampoo.jpg,nonliving,k,0.937084913254,1,9,right,F,Children
4,253,laces.jpg,nonliving,k,1.12364983559,1,9,right,F,Children
4,254,bowl_cereal.png,nonliving,k,0.65299987793,1,9,right,F,Children
4,255,truck_tanker.png,nonliving,k,0.572365045547,1,9,right,F,Children
4,256,boxingGloves.png,nonliving,k,0.505623102188,1,9,right,F,Children
4,257,ice cubes.png,nonliving,k,0.722978830338,1,9,right,F,Children
4,258,chips.png,nonliving,k,0.672867059708,1,9,right,F,Children
4,259,puzzlepiece.png,nonliving,k,0.906703948975,1,9,right,F,Children
4,260,candy.png,nonliving,k,0.539107084274,1,9,right,F,Children
4,261,crab.png,living,j,0.669735193253,1,9,right,F,Children
4,262,pillow.png,nonliving,k,0.589087963104,1,9,right,F,Children
4,263,lifejacket.png,nonliving,k,0.772980928421,1,9,right,F,Children
4,264,soap_bottle.png,nonliving,k,0.706036090851,1,9,right,F,Children
4,265,croissant.png,nonliving,k,0.739499807358,1,9,right,F,Children
4,266,hot pad.jpg,nonliving,k,0.455507040024,1,9,right,F,Children
4,267,necklace_pearl.png,nonliving,k,0.405243873596,1,9,right,F,Children
4,268,paddle_bread.png,nonliving,k,0.488873004913,1,9,right,F,Children
4,269,tissuebox.png,nonliving,k,0.421765804291,1,9,right,F,Children
4,270,table_side.jpg,nonliving,k,0.405222177505,1,9,right,F,Children
4,271,bat_baseball.png,nonliving,k,0.572489976883,1,9,right,F,Children
4,272,antlerheadband.png,nonliving,k,0.722791910172,1,9,right,F,Children
4,273,wolf.png,living,j,0.736545085907,1,9,right,F,Children
4,274,toyStroller.jpg,nonliving,k,1.34124803543,1,9,right,F,Children
4,275,saw.png,nonliving,k,0.689738988876,1,9,right,F,Children
4,276,paddle ball.jpg,nonliving,k,0.605851888657,1,9,right,F,Children
4,277,hammer.png,nonliving,k,0.605860948563,1,9,right,F,Children
4,278,qtip.png,nonliving,k,0.653192996979,1,9,right,F,Children
4,279,candydispenser.png,nonliving,k,0.536000013351,1,9,right,F,Children
4,280,arch.png,nonliving,k,0.572649002075,1,9,right,F,Children
4,281,socks_winter.png,nonliving,k,0.689476013184,1,9,right,F,Children
4,282,hairdryer.png,nonliving,k,0.73659491539,1,9,right,F,Children
4,283,boot_rain.png,nonliving,k,0.622517108917,1,9,right,F,Children
4,284,wheel barrow.png,nonliving,k,0.472290039062,1,9,right,F,Children
4,285,coin.jpg,nonliving,k,0.753270149231,1,9,right,F,Children
4,286,sword.png,nonliving,k,0.438594102859,1,9,right,F,Children
4,287,toys_lego.png,nonliving,k,0.388758897781,1,9,right,F,Children
4,288,bells_christmas.png,nonliving,k,0.672524929047,1,9,right,F,Children
4,289,shirt_tshirt.png,nonliving,k,0.438889980316,1,9,right,F,Children
4,290,doghouse.png,nonliving,k,0.589147090912,1,9,right,F,Children
4,291,teabag.jpg,nonliving,k,0.572252035141,1,9,right,F,Children
4,292,plunger.png,nonliving,k,0.452633142471,1,9,right,F,Children
4,293,soap.png,nonliving,k,0.789655923843,1,9,right,F,Children
4,294,toy_jack-in-the-box.jpg,nonliving,k,0.472239971161,1,9,right,F,Children
4,295,tire_car.png,nonliving,k,0.355370998383,1,9,right,F,Children
4,296,hat_tuque.png,nonliving,k,0.589151144028,1,9,right,F,Children
4,297,kangaroo.png,living,"",,0,9,right,F,Children
4,298,street sweeper.png,nonliving,j,0.0876121520996,0,9,right,F,Children
4,299,tomato sauce.jpg,nonliving,k,0.722747087479,1,9,right,F,Children
4,300,bugle.png,nonliving,k,0.505537033081,1,9,right,F,Children
4,301,handheldMirror.jpg,nonliving,k,0.438629865646,1,9,right,F,Children
4,302,sign_washroom.png,nonliving,k,0.438768148422,1,9,right,F,Children
4,303,dreamcatcher.png,nonliving,k,0.485905170441,1,9,right,F,Children
4,304,wirebeadmaze.png,nonliving,k,0.352215051651,1,9,right,F,Children
4,305,lollipop.png,nonliving,k,0.321822881699,1,9,right,F,Children
4,306,sled.png,nonliving,k,0.305124998093,1,9,right,F,Children
4,307,barrel.png,nonliving,k,0.338509082794,1,9,right,F,Children
4,308,pacifier.png,nonliving,k,0.536067008972,1,9,right,F,Children
4,309,poles_ski.png,nonliving,k,0.471987962723,1,9,right,F,Children
4,310,oldBook.png,nonliving,k,0.555699825287,1,9,right,F,Children
4,311,seal_animal.png,living,j,0.956785917282,1,9,right,F,Children
4,312,pictureframe.png,nonliving,k,0.789543867111,1,9,right,F,Children
4,313,gametable_airhockey.png,nonliving,k,0.906658172607,1,9,right,F,Children
4,314,hanger.png,nonliving,k,0.656008958817,1,9,right,F,Children
4,315,crayon_green.png,nonliving,k,0.639179944992,1,9,right,F,Children
4,316,bin_recycling.png,nonliving,k,0.672657966614,1,9,right,F,Children
4,317,balloon.jpg,nonliving,k,0.706120014191,1,9,right,F,Children
4,318,bread_unleavened.png,nonliving,k,0.638870000839,1,9,right,F,Children
4,319,razor.png,nonliving,k,0.639135122299,1,9,right,F,Children
4,320,chain_rusty.png,nonliving,k,0.673188924789,1,9,right,F,Children
4,321,playdoh.png,nonliving,k,0.622327804565,1,9,right,F,Children
4,322,cinnamonroll.png,nonliving,k,0.706248998642,1,9,right,F,Children
4,323,magnifyingglass.png,nonliving,k,0.703177213669,1,9,right,F,Children
4,324,toy_truck.jpg,nonliving,k,0.95637512207,1,9,right,F,Children
4,325,mouse.jpg,living,j,0.890501022339,1,9,right,F,Children
4,326,bottle_plasticwater.png,nonliving,j,0.75658416748,0,9,right,F,Children
4,327,trophy_man.png,nonliving,k,0.655878067017,1,9,right,F,Children
4,328,potFlowerClay.png,nonliving,k,0.655872106552,1,9,right,F,Children
4,329,iguana.png,living,j,0.786603927612,1,9,right,F,Children
4,330,chair_deck.png,nonliving,k,0.655966997147,1,9,right,F,Children
4,331,stapler.png,nonliving,k,0.65606212616,1,9,right,F,Children
4,332,tickets.png,nonliving,k,0.6225669384,1,9,right,F,Children
5,1,tickets.png,nonliving,"",,0,10,right,M,Children
5,2,fish_swordfish.png,living,j,0.823036909103,1,10,right,M,Children
5,3,package.png,nonliving,k,0.806737184525,1,10,right,M,Children
5,4,babybottle.jpg,nonliving,k,0.936995983124,1,10,right,M,Children
5,5,flashlight.png,nonliving,k,1.10737514496,1,10,right,M,Children
5,6,crutches.jpg,nonliving,k,0.773365020752,1,10,right,M,Children
5,7,flamingo.png,living,j,0.639152050018,1,10,right,M,Children
5,8,bowling pin.png,nonliving,k,0.839782953262,1,10,right,M,Children
5,9,costume_wizard.jpg,nonliving,k,0.873359918594,1,10,right,M,Children
5,10,yarn_ball.png,nonliving,k,0.820187091827,1,10,right,M,Children
5,11,dress_blue.jpg,nonliving,k,0.789656877518,1,10,right,M,Children
5,12,pajamas.png,nonliving,k,0.77299284935,1,10,right,M,Children
5,13,hairband.png,nonliving,k,0.753684997559,1,10,right,M,Children
5,14,boat.png,nonliving,k,0.789644002914,1,10,right,M,Children
5,15,brush_paint.png,nonliving,k,0.873558998108,1,10,right,M,Children
5,16,ship_battle.png,nonliving,k,0.806457996368,1,10,right,M,Children
5,17,slide_children.png,nonliving,k,0.736492872238,1,10,right,M,Children
5,18,skirt.jpg,nonliving,k,0.555831193924,1,10,right,M,Children
5,19,oldBook.png,nonliving,k,0.589118003845,1,10,right,M,Children
5,20,paper towel.jpg,nonliving,k,0.572368144989,1,10,right,M,Children
5,21,motorcycle.png,nonliving,k,0.856616020203,1,10,right,M,Children
5,22,noisemaker.jpg,nonliving,k,0.889839887619,1,10,right,M,Children
5,23,horn_french.png,nonliving,k,0.973512172699,1,10,right,M,Children
5,24,donutFloaty.png,nonliving,k,1.00698900223,1,10,right,M,Children
5,25,clothespin.jpg,nonliving,k,1.09059095383,1,10,right,M,Children
5,26,chair_deck.png,nonliving,k,1.14056110382,1,10,right,M,Children
5,27,pin_clothes.png,nonliving,k,1.03728508949,1,10,right,M,Children
5,28,bugle.png,nonliving,k,1.02370595932,1,10,right,M,Children
5,29,floortile.png,nonliving,k,0.990149021149,1,10,right,M,Children
5,30,ram.png,living,j,0.82021188736,1,10,right,M,Children
5,31,handbag.png,nonliving,k,0.789974927902,1,10,right,M,Children
5,32,sundae_banana.png,nonliving,j,0.723269939423,0,10,right,M,Children
5,33,pillow.png,nonliving,k,1.00725793839,1,10,right,M,Children
5,34,ladder.png,nonliving,k,0.854026079178,1,10,right,M,Children
5,35,globe.png,nonliving,k,0.656183958054,1,10,right,M,Children
5,36,pan_muffin.png,nonliving,k,0.589276075363,1,10,right,M,Children
5,37,ostrich.jpg,living,j,0.62263584137,1,10,right,M,Children
5,38,socks_winter.png,nonliving,k,0.355220079422,1,10,right,M,Children
5,39,pylonTraffic.jpg,nonliving,k,0.555753946304,1,10,right,M,Children
5,40,guitar_electric.png,nonliving,k,0.338392019272,1,10,right,M,Children
5,41,dog_toy.png,nonliving,k,0.371806144714,1,10,right,M,Children
5,42,quartz.png,nonliving,k,0.405515909195,1,10,right,M,Children
5,43,shelf_book.png,nonliving,k,0.536036968231,1,10,right,M,Children
5,44,racoon.jpg,living,j,0.937085151672,1,10,right,M,Children
5,45,doublebass.png,nonliving,k,0.772881031036,1,10,right,M,Children
5,46,thumbtack.png,nonliving,k,0.806452035904,1,10,right,M,Children
5,47,cheeseGouda.png,nonliving,k,0.803555965424,1,10,right,M,Children
5,48,staircase.jpg,nonliving,k,1.0236530304,1,10,right,M,Children
5,49,dreamcatcher.png,nonliving,k,1.12390804291,1,10,right,M,Children
5,50,shears_garden.jpg,nonliving,k,0.956886053085,1,10,right,M,Children
5,51,pants_firefighter.jpg,nonliving,k,1.04035019875,1,10,right,M,Children
5,52,cinnamonroll.png,nonliving,k,0.923388957977,1,10,right,M,Children
5,53,glasses_sun.png,nonliving,k,0.940040111542,1,10,right,M,Children
5,54,butterfly.png,living,j,0.856575965881,1,10,right,M,Children
5,55,ring_diamond.png,nonliving,k,0.839691877365,1,10,right,M,Children
5,56,kite.png,nonliving,k,0.823113918304,1,10,right,M,Children
5,57,saw.png,nonliving,k,0.753468036652,1,10,right,M,Children
5,58,caterpillar_green.png,living,j,1.19118309021,1,10,right,M,Children
5,59,rope.png,nonliving,k,1.19097495079,1,10,right,M,Children
5,60,tray_icecube.png,nonliving,k,1.05698204041,1,10,right,M,Children
5,61,sled.png,nonliving,k,0.906648874283,1,10,right,M,Children
5,62,sword.png,nonliving,k,0.940100908279,1,10,right,M,Children
5,63,zebra.jpg,living,j,0.92352104187,1,10,right,M,Children
5,64,crown.png,nonliving,k,0.706691980362,1,10,right,M,Children
5,65,wheel_steering.jpg,nonliving,k,0.722775936127,1,10,right,M,Children
5,66,knife_butter.png,nonliving,k,0.672766923904,1,10,right,M,Children
5,67,firstAidKit.png,nonliving,k,0.656117916107,1,10,right,M,Children
5,68,pacifier.png,nonliving,k,0.786857128143,1,10,right,M,Children
5,69,hammer.png,nonliving,k,0.672714948654,1,10,right,M,Children
5,70,chalkboarderaser.png,nonliving,k,0.555788993835,1,10,right,M,Children
5,71,watercooler.png,nonliving,k,0.639454841614,1,10,right,M,Children
5,72,binoculars.png,nonliving,k,0.622629880905,1,10,right,M,Children
5,73,weights.png,nonliving,k,0.723070859909,1,10,right,M,Children
5,74,laces.jpg,nonliving,k,0.706536054611,1,10,right,M,Children
5,75,dresser.png,nonliving,k,0.689401865005,1,10,right,M,Children
5,76,toothpaste.png,nonliving,k,0.723139047623,1,10,right,M,Children
5,77,mitten.png,nonliving,k,0.706157922745,1,10,right,M,Children
5,78,perfume.png,nonliving,k,0.538897037506,1,10,right,M,Children
5,79,dryingmachine02.png,nonliving,k,0.522277116776,1,10,right,M,Children
5,80,croissant.png,nonliving,k,0.589267969131,1,10,right,M,Children
5,81,goggles_swim.png,nonliving,k,0.519312143326,1,10,right,M,Children
5,82,figurine_ballerina.jpg,nonliving,j,0.739500999451,0,10,right,M,Children
5,83,boar.png,living,j,1.37455916405,1,10,right,M,Children
5,84,candelabra.jpg,nonliving,k,0.873382091522,1,10,right,M,Children
5,85,car_FerrariRed.jpg,nonliving,k,0.806458950043,1,10,right,M,Children
5,86,fuzzydice.jpg,nonliving,k,0.639170885086,1,10,right,M,Children
5,87,toy_jack-in-the-box.jpg,nonliving,k,0.973384857178,1,10,right,M,Children
5,88,concreteblock.png,nonliving,k,0.956954956055,1,10,right,M,Children
5,89,bathtub.png,nonliving,k,0.840210199356,1,10,right,M,Children
5,90,peppermill.png,nonliving,k,0.772818088531,1,10,right,M,Children
5,91,paintcan.jpg,nonliving,k,1.17404699326,1,10,right,M,Children
5,92,hanger.png,nonliving,k,1.15706205368,1,10,right,M,Children
5,93,puzzlepiece.png,nonliving,k,0.990458011627,1,10,right,M,Children
5,94,bean bag chair.png,nonliving,k,0.906802892685,1,10,right,M,Children
5,95,telescope.png,nonliving,k,0.890373945236,1,10,right,M,Children
5,96,wirebeadmaze.png,nonliving,k,0.722907066345,1,10,right,M,Children
5,97,waterfountain.png,nonliving,k,0.723179101944,1,10,right,M,Children
5,98,sandwich_egg.png,nonliving,k,0.736572980881,1,10,right,M,Children
5,99,radioclock.jpg,nonliving,k,0.672746181488,1,10,right,M,Children
5,100,dog_cockerspaniel.jpg,living,j,1.09086608887,1,10,right,M,Children
5,101,lollipop.png,nonliving,k,0.839874982834,1,10,right,M,Children
5,102,guacamole.png,nonliving,k,0.670295000076,1,10,right,M,Children
5,103,1bird_canadiangoose.jpg,living,j,0.74036192894,1,10,right,M,Children
5,104,hose_garden.png,nonliving,k,0.555742025375,1,10,right,M,Children
5,105,mug.png,nonliving,j,0.505627155304,0,10,right,M,Children
5,106,thermometer.png,nonliving,k,0.538918018341,1,10,right,M,Children
5,107,microwave.png,nonliving,j,0.655935049057,0,10,right,M,Children
5,108,paddle.png,nonliving,"",,0,10,right,M,Children
5,109,gametable_airhockey.png,nonliving,k,1.15746808052,1,10,right,M,Children
5,110,portapotty.png,nonliving,k,0.789848089218,1,10,right,M,Children
5,111,razor.png,nonliving,k,0.672821998596,1,10,right,M,Children
5,112,tiara.png,nonliving,k,0.806406021118,1,10,right,M,Children
5,113,giraffe.png,living,j,0.839703798294,1,10,right,M,Children
5,114,plain_rice.jpg,nonliving,k,0.839828968048,1,10,right,M,Children
5,115,boxingGloves.png,nonliving,k,0.753275156021,1,10,right,M,Children
5,116,shoe_sneaker.png,nonliving,k,0.73951292038,1,10,right,M,Children
5,117,bin_recycling.png,nonliving,k,0.555766105652,1,10,right,M,Children
5,118,bag_garbage.png,nonliving,k,0.505737066269,1,10,right,M,Children
5,119,basketballhoop.png,nonliving,k,0.488996982574,1,10,right,M,Children
5,120,towel.png,nonliving,k,0.522781133652,1,10,right,M,Children
5,121,backpack.png,nonliving,k,0.856574058533,1,10,right,M,Children
5,122,bucket_halloween.jpg,nonliving,k,1.00723004341,1,10,right,M,Children
5,123,paddle_bread.png,nonliving,k,0.987241983414,1,10,right,M,Children
5,124,sink.png,nonliving,k,0.9070789814,1,10,right,M,Children
5,125,coin.jpg,nonliving,k,1.04123210907,1,10,right,M,Children
5,126,garbageBin.jpg,nonliving,k,1.12373995781,1,10,right,M,Children
5,127,swing set.jpg,nonliving,"",,0,10,right,M,Children
5,128,babysocks.png,nonliving,k,0.0178210735321,1,10,right,M,Children
5,129,dog_food.png,nonliving,k,0.83988404274,1,10,right,M,Children
5,130,squid.jpg,living,j,0.823276996613,1,10,right,M,Children
5,131,spiderweb.png,nonliving,k,0.656247138977,1,10,right,M,Children
5,132,ribbon.jpg,nonliving,k,0.636229038239,1,10,right,M,Children
5,133,card_queenspade.png,nonliving,k,0.78676199913,1,10,right,M,Children
5,134,shirt_tshirt.png,nonliving,k,0.689764022827,1,10,right,M,Children
5,135,candle.png,nonliving,k,0.602983951569,1,10,right,M,Children
5,136,dragonfly.png,living,j,0.786629915237,1,10,right,M,Children
5,137,rollerblade.png,nonliving,k,0.772939920425,1,10,right,M,Children
5,138,magnifyingglass.png,nonliving,k,0.69012594223,1,10,right,M,Children
5,139,compass.png,nonliving,k,0.422235012054,1,10,right,M,Children
5,140,drill.png,nonliving,k,0.65607213974,1,10,right,M,Children
5,141,pretzel.png,nonliving,k,1.1405479908,1,10,right,M,Children
5,142,goldnugget.png,nonliving,k,0.906524896622,1,10,right,M,Children
5,143,bug_ladybug.png,living,j,0.71998000145,1,10,right,M,Children
5,144,walkitalkie.png,nonliving,k,0.689629077911,1,10,right,M,Children
5,145,spotlight.png,nonliving,k,0.669825792313,1,10,right,M,Children
5,146,snow shoes.png,nonliving,k,0.539225101471,1,10,right,M,Children
5,147,cautionSignFrench.png,nonliving,k,0.540058135986,1,10,right,M,Children
5,148,megaphone.png,nonliving,k,0.572639942169,1,10,right,M,Children
5,149,shrimp.png,nonliving,j,0.990675926208,0,10,right,M,Children
5,150,hair_scrunchie.png,nonliving,k,1.04029297829,1,10,right,M,Children
5,151,pig.png,living,k,1.29109692574,0,10,right,M,Children
5,152,wreath.png,nonliving,k,1.25770306587,1,10,right,M,Children
5,153,lightbulb.png,nonliving,"",,0,10,right,M,Children
5,154,television.png,nonliving,k,1.34114193916,1,10,right,M,Children
5,155,rolling pin.jpg,nonliving,k,1.12396502495,1,10,right,M,Children
5,156,doghouse.png,nonliving,k,1.2241590023,1,10,right,M,Children
5,157,playground.png,nonliving,k,1.12090110779,1,10,right,M,Children
5,158,flute_wooden.png,nonliving,k,0.940181016922,1,10,right,M,Children
5,159,skates.png,nonliving,k,0.789932012558,1,10,right,M,Children
5,160,goat.png,living,j,0.839995145798,1,10,right,M,Children
5,161,bottle_spray.jpg,nonliving,k,0.739514112473,1,10,right,M,Children
5,162,cup.jpg,nonliving,"",,0,10,right,M,Children
5,163,egg_easter.jpg,nonliving,k,1.0235888958,1,10,right,M,Children
5,164,poles_ski.png,nonliving,k,0.890422105789,1,10,right,M,Children
5,165,bib.png,nonliving,k,0.739370107651,1,10,right,M,Children
5,166,puppettheatre.png,nonliving,k,0.703336954117,1,10,right,M,Children
5,167,diaper changing station.png,nonliving,k,0.589296102524,1,10,right,M,Children
5,168,teapot.png,nonliving,k,0.455592155457,1,10,right,M,Children
5,169,ice cubes.png,nonliving,k,0.488785982132,1,10,right,M,Children
5,170,playdoh.png,nonliving,k,0.589256048203,1,10,right,M,Children
5,171,piano_keyboard.png,nonliving,k,0.639132976532,1,10,right,M,Children
5,172,dog_bulldog.jpg,living,j,0.856674909592,1,10,right,M,Children
5,173,street sweeper.png,nonliving,k,1.14068293571,1,10,right,M,Children
5,174,earrings_dangling.jpg,nonliving,k,1.12137293816,1,10,right,M,Children
5,175,soap.png,nonliving,k,0.990252017975,1,10,right,M,Children
5,176,stroller.png,nonliving,k,0.873289108276,1,10,right,M,Children
5,177,letter_mail.png,nonliving,k,0.622730016708,1,10,right,M,Children
5,178,lifejacket.png,nonliving,k,0.555855035782,1,10,right,M,Children
5,179,chain_rusty.png,nonliving,k,0.923793077469,1,10,right,M,Children
5,180,archery.jpg,nonliving,k,0.772953987122,1,10,right,M,Children
5,181,lock_combination.jpg,nonliving,k,0.789597034454,1,10,right,M,Children
5,182,feather.png,nonliving,k,0.589146137238,1,10,right,M,Children
5,183,stick_ice hockey.png,nonliving,k,0.469236850739,1,10,right,M,Children
5,184,napkin_ring.png,nonliving,k,0.40519118309,1,10,right,M,Children
5,185,tricycle.png,nonliving,k,0.488852024078,1,10,right,M,Children
5,186,bandage.jpg,nonliving,k,0.522318124771,1,10,right,M,Children
5,187,giftbow01.png,nonliving,k,0.672596931458,1,10,right,M,Children
5,188,ball_baseball.png,nonliving,k,0.555724143982,1,10,right,M,Children
5,189,sphinx.png,nonliving,k,0.939924955368,1,10,right,M,Children
5,190,coffeepot.png,nonliving,k,0.772894859314,1,10,right,M,Children
5,191,calculator.png,nonliving,k,0.756443023682,1,10,right,M,Children
5,192,checkers_board.jpg,nonliving,k,0.639177083969,1,10,right,M,Children
5,193,bed.png,nonliving,k,0.569468975067,1,10,right,M,Children
5,194,toys_lego.png,nonliving,k,0.368937969208,1,10,right,M,Children
5,195,vaseDecorativeOriental.jpg,nonliving,k,0.338469982147,1,10,right,M,Children
5,196,barrel.png,nonliving,k,0.469223022461,1,10,right,M,Children
5,197,antlerheadband.png,nonliving,k,0.7561378479,1,10,right,M,Children
5,198,helicopter.jpg,nonliving,k,0.873388051987,1,10,right,M,Children
5,199,toad.png,living,j,1.02349710464,1,10,right,M,Children
5,200,wateringcan.png,nonliving,k,0.602922201157,1,10,right,M,Children
5,201,truck_tanker.png,nonliving,k,0.589164972305,1,10,right,M,Children
5,202,bolt.png,nonliving,k,0.405331134796,1,10,right,M,Children
5,203,handheldMirror.jpg,nonliving,k,0.455704927444,1,10,right,M,Children
5,204,fryingpan.png,nonliving,k,0.639282941818,1,10,right,M,Children
5,205,bagel.png,nonliving,k,0.67262506485,1,10,right,M,Children
5,206,soap_bottle.png,nonliving,k,0.82315993309,1,10,right,M,Children
5,207,cookiecutter_bell.png,nonliving,k,0.940217971802,1,10,right,M,Children
5,208,stapler.png,nonliving,k,1.17395496368,1,10,right,M,Children
5,209,number_3.png,nonliving,k,0.956799983978,1,10,right,M,Children
5,210,drum_set.png,nonliving,k,0.589299917221,1,10,right,M,Children
5,211,whisk_electric.jpg,nonliving,k,0.522442102432,1,10,right,M,Children
5,212,basket_straw.png,nonliving,k,0.455501079559,1,10,right,M,Children
5,213,panda.jpg,living,j,0.689509868622,1,10,right,M,Children
5,214,escalator.png,nonliving,k,0.572613954544,1,10,right,M,Children
5,215,necklace_pearl.png,nonliving,k,0.689581155777,1,10,right,M,Children
5,216,cane.png,nonliving,k,0.75633597374,1,10,right,M,Children
5,217,mop.png,nonliving,k,0.786693096161,1,10,right,M,Children
5,218,umbrella.png,nonliving,k,0.706133842468,1,10,right,M,Children
5,219,inukshuk.png,nonliving,k,0.890179157257,1,10,right,M,Children
5,220,pen.png,nonliving,k,0.890038967133,1,10,right,M,Children
5,221,shampoo.jpg,nonliving,k,0.886958122253,1,10,right,M,Children
5,222,macaroni.png,nonliving,k,0.722964048386,1,10,right,M,Children
5,223,candydispenser.png,nonliving,k,0.519663095474,1,10,right,M,Children
5,224,match.png,nonliving,k,0.488837957382,1,10,right,M,Children
5,225,lawnmower.png,nonliving,k,0.539170026779,1,10,right,M,Children
5,226,watch.png,nonliving,k,0.50589799881,1,10,right,M,Children
5,227,hyaena.jpg,living,j,0.689315080643,1,10,right,M,Children
5,228,pants.png,nonliving,k,0.689499139786,1,10,right,M,Children
5,229,building_door.png,nonliving,k,0.589063882828,1,10,right,M,Children
5,230,fork.png,nonliving,k,0.588980913162,1,10,right,M,Children
5,231,loofah.png,nonliving,k,0.472219944,1,10,right,M,Children
5,232,hoodieGray.jpg,nonliving,k,0.371984004974,1,10,right,M,Children
5,233,plunger.png,nonliving,k,0.538964033127,1,10,right,M,Children
5,234,chips.png,nonliving,k,0.557152032852,1,10,right,M,Children
5,235,mask_hockeygoalie.png,nonliving,k,0.522200107574,1,10,right,M,Children
5,236,pictureframe.png,nonliving,k,0.505508899689,1,10,right,M,Children
5,237,hat_tuque.png,nonliving,"",,0,10,right,M,Children
5,238,notebook_black.png,nonliving,k,0.839668989182,1,10,right,M,Children
5,239,candy.png,nonliving,k,0.672852039337,1,10,right,M,Children
5,240,scooter.png,nonliving,k,0.555608034134,1,10,right,M,Children
5,241,carton_eggs.png,nonliving,k,0.873293876648,1,10,right,M,Children
5,242,clock_digital.png,nonliving,k,0.823264122009,1,10,right,M,Children
5,243,crayon_green.png,nonliving,k,0.539333105087,1,10,right,M,Children
5,244,sheep.jpg,living,j,0.62248301506,1,10,right,M,Children
5,245,dog_leash.jpg,nonliving,k,0.455423116684,1,10,right,M,Children
5,246,smokingpipe.png,nonliving,k,0.839656114578,1,10,right,M,Children
5,247,partyDress.png,nonliving,k,0.736783027649,1,10,right,M,Children
5,248,sign_washroom.png,nonliving,k,0.50550198555,1,10,right,M,Children
5,249,net_butterfly.jpg,nonliving,k,0.455617904663,1,10,right,M,Children
5,250,cake_cheese.png,nonliving,k,0.589194059372,1,10,right,M,Children
5,251,cloud.png,nonliving,k,0.619601011276,1,10,right,M,Children
5,252,arch.png,nonliving,k,0.655976057053,1,10,right,M,Children
5,253,gloves_winter.png,nonliving,k,0.622845888138,1,10,right,M,Children
5,254,paddle ball.jpg,nonliving,k,0.606141805649,1,10,right,M,Children
5,255,teabag.jpg,nonliving,k,0.57301402092,1,10,right,M,Children
5,256,table_side.jpg,nonliving,k,0.438695907593,1,10,right,M,Children
5,257,hedgehog.png,living,j,0.672656059265,1,10,right,M,Children
5,258,qtip.png,nonliving,k,0.672740936279,1,10,right,M,Children
5,259,toy_truck.jpg,nonliving,k,0.539310216904,1,10,right,M,Children
5,260,watergun.png,nonliving,k,0.418948888779,1,10,right,M,Children
5,261,bread_unleavened.png,nonliving,k,0.338469982147,1,10,right,M,Children
5,262,water well.png,nonliving,k,0.32173204422,1,10,right,M,Children
5,263,worldmap.png,nonliving,k,0.288537025452,1,10,right,M,Children
5,264,pencilsharpener.png,nonliving,k,0.335466861725,1,10,right,M,Children
5,265,ball_8.png,nonliving,k,0.305118083954,1,10,right,M,Children
5,266,tomato sauce.jpg,nonliving,k,0.388391017914,1,10,right,M,Children
5,267,domino.png,nonliving,k,0.689224004745,1,10,right,M,Children
5,268,tire_car.png,nonliving,k,0.569538116455,1,10,right,M,Children
5,269,tap_bathroom.jpg,nonliving,k,0.806183099747,1,10,right,M,Children
5,270,chest_toys.png,nonliving,k,0.973749160767,1,10,right,M,Children
5,271,bottle_plasticwater.png,nonliving,k,0.655954837799,1,10,right,M,Children
5,272,snow globe.png,nonliving,k,0.488741874695,1,10,right,M,Children
5,273,statue_head.png,nonliving,k,0.372359991074,1,10,right,M,Children
5,274,balloon.jpg,nonliving,k,0.388757944107,1,10,right,M,Children
5,275,whistle.png,nonliving,k,0.455906867981,1,10,right,M,Children
5,276,chipmunk.jpg,living,j,0.689340114594,1,10,right,M,Children
5,277,giftbox.jpg,nonliving,k,0.639535903931,1,10,right,M,Children
5,278,boots_hiking.png,nonliving,k,0.941306114197,1,10,right,M,Children
5,279,squirrel.jpg,living,j,0.873431921005,1,10,right,M,Children
5,280,bench_park.png,nonliving,k,0.706135988235,1,10,right,M,Children
5,281,gun_nerf.jpg,nonliving,k,0.836776971817,1,10,right,M,Children
5,282,gum_pack.png,nonliving,k,0.956889867783,1,10,right,M,Children
5,283,mask_black.png,nonliving,k,0.889968156815,1,10,right,M,Children
5,284,guineaPig.png,living,j,0.923141956329,1,10,right,M,Children
5,285,spoons_measuring.jpg,nonliving,k,0.706180095673,1,10,right,M,Children
5,286,caribou.png,living,j,0.8899102211,1,10,right,M,Children
5,287,tiger_white.png,living,j,0.9233751297,1,10,right,M,Children
5,288,wheel barrow.png,nonliving,k,0.870464086533,1,10,right,M,Children
5,289,toy_alien.jpg,nonliving,k,0.75331902504,1,10,right,M,Children
5,290,glueGun.jpg,nonliving,k,0.807336091995,1,10,right,M,Children
5,291,pliers.png,nonliving,k,0.655565023422,1,10,right,M,Children
5,292,cashregister.png,nonliving,k,0.823195934296,1,10,right,M,Children
5,293,gingerbreadman.jpg,nonliving,k,0.756499052048,1,10,right,M,Children
5,294,owl.png,living,j,0.773053884506,1,10,right,M,Children
5,295,tissuebox.png,nonliving,k,0.706430912018,1,10,right,M,Children
5,296,drinkingfountain.png,nonliving,k,0.856745958328,1,10,right,M,Children
5,297,birdhouse.png,nonliving,k,0.78989481926,1,10,right,M,Children
5,298,button_plastic.png,nonliving,k,0.873616933823,1,10,right,M,Children
5,299,englishmuffin.png,nonliving,k,0.572621107101,1,10,right,M,Children
5,300,stoveAntique.jpg,nonliving,k,0.405302047729,1,10,right,M,Children
5,301,belt.png,nonliving,k,0.388458013535,1,10,right,M,Children
5,302,mannequin.jpg,nonliving,k,0.586054801941,1,10,right,M,Children
5,303,champagne.jpg,nonliving,k,1.35813093185,1,10,right,M,Children
5,304,fireextinguisher.jpg,nonliving,"",,0,10,right,M,Children
5,305,boot_rain.png,nonliving,k,0.722805023193,1,10,right,M,Children
5,306,castle_sand.png,nonliving,k,0.555726051331,1,10,right,M,Children
5,307,hairdryer.png,nonliving,k,0.321989059448,1,10,right,M,Children
5,308,headphones.png,nonliving,k,0.722887992859,1,10,right,M,Children
5,309,bowl_cereal.png,nonliving,k,0.305019855499,1,10,right,M,Children
5,310,horse.png,living,k,0.288347959518,0,10,right,M,Children
5,311,rope_skipping.png,nonliving,k,0.786819934845,1,10,right,M,Children
5,312,boxtruck.png,nonliving,k,0.455550909042,1,10,right,M,Children
5,313,cake_wedding.png,nonliving,k,0.639149904251,1,10,right,M,Children
5,314,diving_board.jpg,nonliving,k,0.639710903168,1,10,right,M,Children
5,315,trophy_man.png,nonliving,k,1.02362012863,1,10,right,M,Children
5,316,remotecontrol.png,nonliving,k,0.605781793594,1,10,right,M,Children
5,317,potFlowerClay.png,nonliving,k,0.455719947815,1,10,right,M,Children
5,318,clip_paper.png,nonliving,k,0.355386018753,1,10,right,M,Children
5,319,candycane.jpg,nonliving,k,0.488899946213,1,10,right,M,Children
5,320,pencil.png,nonliving,k,0.522331953049,1,10,right,M,Children
5,321,elephant.png,living,j,0.956893920898,1,10,right,M,Children
5,322,bowtie.jpg,nonliving,k,0.806553840637,1,10,right,M,Children
5,323,cow.png,living,j,0.589365005493,1,10,right,M,Children
5,324,bat_baseball.png,nonliving,k,0.555770874023,1,10,right,M,Children
5,325,rug.png,nonliving,k,0.689341068268,1,10,right,M,Children
5,326,bells_christmas.png,nonliving,k,0.506090164185,1,10,right,M,Children
5,327,ghost.png,nonliving,k,0.789632081985,1,10,right,M,Children
5,328,tuxedo.jpg,nonliving,k,0.606022119522,1,10,right,M,Children
5,329,hot pad.jpg,nonliving,k,0.489031791687,1,10,right,M,Children
5,330,dust_pan.png,nonliving,k,0.472325086594,1,10,right,M,Children
5,331,toyStroller.jpg,nonliving,k,0.605983018875,1,10,right,M,Children
5,332,pirateflag.jpg,nonliving,k,0.586268901825,1,10,right,M,Children
6,1,washingmachine.png,nonliving,j,0.990149974823,0,8,right,M,Children
6,2,hat_tuque.png,nonliving,k,1.02415704727,1,8,right,M,Children
6,3,radioclock.jpg,nonliving,k,0.786797046661,1,8,right,M,Children
6,4,firstAidKit.png,nonliving,k,0.606029987335,1,8,right,M,Children
6,5,concreteblock.png,nonliving,k,0.419142961502,1,8,right,M,Children
6,6,gun_nerf.jpg,nonliving,k,0.622772932053,1,8,right,M,Children
6,7,tablePingPong.jpg,nonliving,k,0.622717857361,1,8,right,M,Children
6,8,slide_children.png,nonliving,k,0.42236495018,1,8,right,M,Children
6,9,backpack.png,nonliving,k,0.338547229767,1,8,right,M,Children
6,10,walkitalkie.png,nonliving,k,0.619672060013,1,8,right,M,Children
6,11,compass.png,nonliving,k,0.388695001602,1,8,right,M,Children
6,12,bus_doubledecker.png,nonliving,k,0.422158002853,1,8,right,M,Children
6,13,giftbow01.png,nonliving,k,0.372193098068,1,8,right,M,Children
6,14,tray_icecube.png,nonliving,k,0.305063009262,1,8,right,M,Children
6,15,toys_lego.png,nonliving,k,0.439186096191,1,8,right,M,Children
6,16,goggles_swim.png,nonliving,k,0.539352178574,1,8,right,M,Children
6,17,flashlight.png,nonliving,k,0.6563539505,1,8,right,M,Children
6,18,toy_jack-in-the-box.jpg,nonliving,k,0.639622926712,1,8,right,M,Children
6,19,binoculars.png,nonliving,k,0.605713129044,1,8,right,M,Children
6,20,mask_black.png,nonliving,k,0.505659103394,1,8,right,M,Children
6,21,lizard.png,living,k,0.472532987595,0,8,right,M,Children
6,22,clam.png,living,k,0.723172903061,0,8,right,M,Children
6,23,domino.png,nonliving,j,0.790064096451,0,8,right,M,Children
6,24,cake_cheese.png,nonliving,k,1.00730895996,1,8,right,M,Children
6,25,chick.png,living,j,1.09077692032,1,8,right,M,Children
6,26,lipstick.png,nonliving,k,1.04061484337,1,8,right,M,Children
6,27,balloon.jpg,nonliving,k,1.05729317665,1,8,right,M,Children
6,28,electricoutlet.png,nonliving,k,0.840041875839,1,8,right,M,Children
6,29,grillGas.jpg,nonliving,k,0.923556089401,1,8,right,M,Children
6,30,figurine_ballerina.jpg,nonliving,j,0.956896066666,0,8,right,M,Children
6,31,macaroni.png,nonliving,j,0.970834970474,0,8,right,M,Children
6,32,whisk_electric.jpg,nonliving,k,0.756565093994,1,8,right,M,Children
6,33,plasticChairGreen.jpg,nonliving,k,0.873538017273,1,8,right,M,Children
6,34,truck_tanker.png,nonliving,k,0.669801950455,1,8,right,M,Children
6,35,origamiPaper.png,nonliving,k,0.405635118484,1,8,right,M,Children
6,36,spotlight.png,nonliving,k,0.572864055634,1,8,right,M,Children
6,37,hanger.png,nonliving,k,0.338820934296,1,8,right,M,Children
6,38,quartz.png,nonliving,k,0.486498832703,1,8,right,M,Children
6,39,microwave.png,nonliving,k,0.723246097565,1,8,right,M,Children
6,40,bottle_spray.jpg,nonliving,k,0.539444923401,1,8,right,M,Children
6,41,Baby-Bunny-Wallpaper-Free-Download.png,living,k,0.288547039032,0,8,right,M,Children
6,42,cinnamonroll.png,nonliving,k,0.68672990799,1,8,right,M,Children
6,43,puzzlepiece.png,nonliving,k,0.322118997574,1,8,right,M,Children
6,44,antlerheadband.png,nonliving,"",,0,8,right,M,Children
6,45,dart.jpg,nonliving,k,1.32480597496,1,8,right,M,Children
6,46,megaphone.png,nonliving,k,0.656282901764,1,8,right,M,Children
6,47,bed.png,nonliving,k,0.355481147766,1,8,right,M,Children
6,48,bells_christmas.png,nonliving,k,0.338721990585,1,8,right,M,Children
6,49,lynx.png,living,j,0.806514024734,1,8,right,M,Children
6,50,iguana.png,living,k,0.555895090103,0,8,right,M,Children
6,51,piano_keyboard.png,nonliving,k,0.823400974274,1,8,right,M,Children
6,52,floortile.png,nonliving,k,0.572609901428,1,8,right,M,Children
6,53,gazebo_wooden.png,nonliving,k,0.388707876205,1,8,right,M,Children
6,54,escalator.png,nonliving,k,0.322093963623,1,8,right,M,Children
6,55,watercolorpaintset.png,nonliving,k,0.288697004318,1,8,right,M,Children
6,56,scooter.png,nonliving,k,0.338803052902,1,8,right,M,Children
6,57,horn_french.png,nonliving,k,0.27324795723,1,8,right,M,Children
6,58,hoodieGray.jpg,nonliving,k,0.472577810287,1,8,right,M,Children
6,59,cup.jpg,nonliving,k,0.622581005096,1,8,right,M,Children
6,60,ghost.png,nonliving,k,0.438765048981,1,8,right,M,Children
6,61,plunger.png,nonliving,k,0.506030082703,1,8,right,M,Children
6,62,lightbulb.png,nonliving,k,0.806755781174,1,8,right,M,Children
6,63,ice cubes.png,nonliving,k,0.639610052109,1,8,right,M,Children
6,64,crab.png,living,j,0.870579957962,1,8,right,M,Children
6,65,necklace_pearl.png,nonliving,k,0.639619112015,1,8,right,M,Children
6,66,hat_hard.png,nonliving,k,0.505963802338,1,8,right,M,Children
6,67,smokingpipe.png,nonliving,k,0.622978925705,1,8,right,M,Children
6,68,carton_eggs.png,nonliving,j,0.706475973129,0,8,right,M,Children
6,69,stoveAntique.jpg,nonliving,k,0.622755050659,1,8,right,M,Children
6,70,rolling pin.jpg,nonliving,k,0.653057813644,1,8,right,M,Children
6,71,watergun.png,nonliving,k,0.402611970901,1,8,right,M,Children
6,72,starfish.png,living,k,0.422000169754,0,8,right,M,Children
6,73,fork.png,nonliving,k,1.14155912399,1,8,right,M,Children
6,74,pencilsharpener.png,nonliving,k,0.672863960266,1,8,right,M,Children
6,75,drinkingfountain.png,nonliving,k,0.522685050964,1,8,right,M,Children
6,76,spoons_measuring.jpg,nonliving,k,0.472408056259,1,8,right,M,Children
6,77,crown.png,nonliving,k,0.655966997147,1,8,right,M,Children
6,78,camera_security.png,nonliving,k,0.539400815964,1,8,right,M,Children
6,79,boots_hiking.png,nonliving,k,0.622676134109,1,8,right,M,Children
6,80,headphones.png,nonliving,k,0.522769927979,1,8,right,M,Children
6,81,street sweeper.png,nonliving,k,0.419443845749,1,8,right,M,Children
6,82,space shuttle.png,nonliving,k,0.372092962265,1,8,right,M,Children
6,83,qtip.png,nonliving,k,0.438988208771,1,8,right,M,Children
6,84,bandage.jpg,nonliving,k,0.322061061859,1,8,right,M,Children
6,85,saw.png,nonliving,k,0.302405118942,1,8,right,M,Children
6,86,cougar.png,living,j,0.605969905853,1,8,right,M,Children
6,87,brush_paint.png,nonliving,k,0.506051778793,1,8,right,M,Children
6,88,soap.png,nonliving,j,0.519648075104,0,8,right,M,Children
6,89,telescope.png,nonliving,k,0.539267063141,1,8,right,M,Children
6,90,noisemaker.jpg,nonliving,k,0.338551044464,1,8,right,M,Children
6,91,lifejacket.png,nonliving,k,0.285382032394,1,8,right,M,Children
6,92,eyeMask.jpg,nonliving,k,0.369199991226,1,8,right,M,Children
6,93,wirebeadmaze.png,nonliving,k,0.338219165802,1,8,right,M,Children
6,94,card_queenspade.png,nonliving,k,0.372362136841,1,8,right,M,Children
6,95,pitcher_plastic.png,nonliving,k,0.371929168701,1,8,right,M,Children
6,96,camel.png,living,k,0.455669879913,0,8,right,M,Children
6,97,cheeseGouda.png,nonliving,k,0.790038108826,1,8,right,M,Children
6,98,playdoh.png,nonliving,k,0.589452028275,1,8,right,M,Children
6,99,whale.jpg,living,j,0.673058986664,1,8,right,M,Children
6,100,scissors.png,nonliving,k,0.489278078079,1,8,right,M,Children
6,101,cashregister.png,nonliving,k,0.26879119873,1,8,right,M,Children
6,102,laces.jpg,nonliving,k,0.255050897598,1,8,right,M,Children
6,103,wolf.png,living,j,0.639518976212,1,8,right,M,Children
6,104,worldmap.png,nonliving,k,0.820213079453,1,8,right,M,Children
6,105,skates.png,nonliving,k,0.606161117554,1,8,right,M,Children
6,106,dresser.png,nonliving,k,0.773290157318,1,8,right,M,Children
6,107,coin.jpg,nonliving,k,0.489273071289,1,8,right,M,Children
6,108,umbrella.png,nonliving,k,0.522601127625,1,8,right,M,Children
6,109,clip_paper.png,nonliving,k,0.439065933228,1,8,right,M,Children
6,110,kitchen sink.jpg,nonliving,k,0.405430078506,1,8,right,M,Children
6,111,grasshopper.png,living,k,0.372215032578,0,8,right,M,Children
6,112,macaque.png,living,j,0.856912136078,1,8,right,M,Children
6,113,pliers.png,nonliving,k,0.606182098389,1,8,right,M,Children
6,114,fan.png,nonliving,j,0.973935842514,0,8,right,M,Children
6,115,statue_metal_man.jpg,nonliving,k,0.823398113251,1,8,right,M,Children
6,116,mask_hockeygoalie.png,nonliving,k,0.806606054306,1,8,right,M,Children
6,117,archery.jpg,nonliving,k,0.672977924347,1,8,right,M,Children
6,118,skirt.jpg,nonliving,k,0.519433021545,1,8,right,M,Children
6,119,bucket_halloween.jpg,nonliving,k,0.452471017838,1,8,right,M,Children
6,120,swing set.jpg,nonliving,k,0.385945081711,1,8,right,M,Children
6,121,shrimp.png,nonliving,k,0.606137037277,1,8,right,M,Children
6,122,drum_set.png,nonliving,k,0.588994979858,1,8,right,M,Children
6,123,key_car.png,nonliving,k,0.556024074554,1,8,right,M,Children
6,124,oven.png,nonliving,k,0.388660907745,1,8,right,M,Children
6,125,shield_antique.png,nonliving,k,0.522750139236,1,8,right,M,Children
6,126,potFlowerClay.png,nonliving,k,0.405586957932,1,8,right,M,Children
6,127,cookiecutter_bell.png,nonliving,k,0.639703035355,1,8,right,M,Children
6,128,cloud.png,nonliving,k,0.506068944931,1,8,right,M,Children
6,129,toilet.png,nonliving,k,0.723150014877,1,8,right,M,Children
6,130,lamp_street.png,nonliving,k,0.60736989975,1,8,right,M,Children
6,131,oldBook.png,nonliving,k,0.339028835297,1,8,right,M,Children
6,132,rope_skipping.png,nonliving,k,0.472505807877,1,8,right,M,Children
6,133,milk_shake.jpg,nonliving,k,0.355259895325,1,8,right,M,Children
6,134,plate_ceramic.png,nonliving,k,0.35538482666,1,8,right,M,Children
6,135,doghouse.png,nonliving,k,0.405456066132,1,8,right,M,Children
6,136,puppettheatre.png,nonliving,k,0.522463083267,1,8,right,M,Children
6,137,snow globe.png,nonliving,k,0.806747913361,1,8,right,M,Children
6,138,paddle.png,nonliving,k,0.622883081436,1,8,right,M,Children
6,139,feather.png,nonliving,k,0.803734064102,1,8,right,M,Children
6,140,bicycle.png,nonliving,"",,0,8,right,M,Children
6,141,beaver.jpg,living,j,0.0881361961365,1,8,right,M,Children
6,142,trafficlight.png,nonliving,k,0.65643787384,1,8,right,M,Children
6,143,bird_toucan.png,living,j,0.873600006104,1,8,right,M,Children
6,144,knife_butter.png,nonliving,k,0.773262023926,1,8,right,M,Children
6,145,fish_rockbass.png,living,j,0.78926897049,1,8,right,M,Children
6,146,bat_baseball.png,nonliving,k,0.773041009903,1,8,right,M,Children
6,147,donutFloaty.png,nonliving,k,0.90659403801,1,8,right,M,Children
6,148,shoe_sneaker.png,nonliving,k,0.89014005661,1,8,right,M,Children
6,149,pool_kiddie.png,nonliving,k,0.419183969498,1,8,right,M,Children
6,150,sign_washroom.png,nonliving,k,0.706526994705,1,8,right,M,Children
6,151,rollerblade.png,nonliving,k,0.505718946457,1,8,right,M,Children
6,152,guacamole.png,nonliving,k,0.271627902985,1,8,right,M,Children
6,153,ambulance.png,nonliving,k,0.522696018219,1,8,right,M,Children
6,154,trophy_man.png,nonliving,k,0.118571043015,1,8,right,M,Children
6,155,ribbon.jpg,nonliving,k,0.422387123108,1,8,right,M,Children
6,156,waterfountain.png,nonliving,k,0.686563014984,1,8,right,M,Children
6,157,checkers_board.jpg,nonliving,k,0.104514122009,1,8,right,M,Children
6,158,sled.png,nonliving,k,0.405635118484,1,8,right,M,Children
6,159,ring_diamond.png,nonliving,k,0.653314113617,1,8,right,M,Children
6,160,bottle_plasticwater.png,nonliving,k,0.32203912735,1,8,right,M,Children
6,161,notebook_black.png,nonliving,k,0.522767066956,1,8,right,M,Children
6,162,diaper changing station.png,nonliving,k,0.288527011871,1,8,right,M,Children
6,163,bench_park.png,nonliving,k,0.305386781693,1,8,right,M,Children
6,164,television.png,nonliving,k,0.218575000763,1,8,right,M,Children
6,165,globe.png,nonliving,k,0.372087001801,1,8,right,M,Children
6,166,net_butterfly.jpg,nonliving,k,0.455718994141,1,8,right,M,Children
6,167,bird_eagle 2.png,living,k,0.405563116074,0,8,right,M,Children
6,168,hat_party.png,nonliving,k,0.873711824417,1,8,right,M,Children
6,169,stapler.png,nonliving,k,0.67006611824,1,8,right,M,Children
6,170,motorcycle.png,nonliving,k,0.304727077484,1,8,right,M,Children
6,171,dust_pan.png,nonliving,k,0.40534901619,1,8,right,M,Children
6,172,wallet_blackleather.png,nonliving,k,0.489071846008,1,8,right,M,Children
6,173,ball_baseball.png,nonliving,k,0.502940893173,1,8,right,M,Children
6,174,loofah.png,nonliving,k,0.472499847412,1,8,right,M,Children
6,175,cake_wedding.png,nonliving,k,0.786988973618,1,8,right,M,Children
6,176,doublebass.png,nonliving,k,0.356135845184,1,8,right,M,Children
6,177,lock_combination.jpg,nonliving,k,0.238379955292,1,8,right,M,Children
6,178,spiderweb.png,nonliving,k,0.0349409580231,1,8,right,M,Children
6,179,comb.png,nonliving,k,0.636639118195,1,8,right,M,Children
6,180,bag_garbage.png,nonliving,k,0.372181177139,1,8,right,M,Children
6,181,dog_leash.jpg,nonliving,k,0.388815879822,1,8,right,M,Children
6,182,bowtie.jpg,nonliving,k,0.7064909935,1,8,right,M,Children
6,183,turtle.png,living,j,0.85671710968,1,8,right,M,Children
6,184,lawnmower.png,nonliving,k,0.856771945953,1,8,right,M,Children
6,185,bread_unleavened.png,nonliving,k,0.923888921738,1,8,right,M,Children
6,186,glassBall.jpg,nonliving,k,0.686460018158,1,8,right,M,Children
6,187,bagel.png,nonliving,k,0.43882393837,1,8,right,M,Children
6,188,giftbox.jpg,nonliving,k,0.786732912064,1,8,right,M,Children
6,189,babysocks.png,nonliving,k,0.405425786972,1,8,right,M,Children
6,190,playground.png,nonliving,k,0.556183815002,1,8,right,M,Children
6,191,belt.png,nonliving,k,0.672801017761,1,8,right,M,Children
6,192,cautionSignFrench.png,nonliving,k,0.706418037415,1,8,right,M,Children
6,193,outhouse.png,nonliving,k,0.455815076828,1,8,right,M,Children
6,194,egg_easter.jpg,nonliving,k,0.388948917389,1,8,right,M,Children
6,195,mousepad.png,nonliving,k,0.305322885513,1,8,right,M,Children
6,196,brush_makeup.png,nonliving,k,0.622818946838,1,8,right,M,Children
6,197,pen.png,nonliving,k,0.389055967331,1,8,right,M,Children
6,198,snorkle.jpg,nonliving,k,0.271650075912,1,8,right,M,Children
6,199,chips.png,nonliving,k,0.369226932526,1,8,right,M,Children
6,200,flipflopsBlue.png,nonliving,k,0.338617801666,1,8,right,M,Children
6,201,garbageBin.jpg,nonliving,k,0.138346910477,1,8,right,M,Children
6,202,1bear_polarbear.png,living,k,0.335451126099,0,8,right,M,Children
6,203,sword.png,nonliving,k,0.67307806015,1,8,right,M,Children
6,204,towel.png,nonliving,k,0.505017995834,1,8,right,M,Children
6,205,tape.png,nonliving,k,0.0881178379059,1,8,right,M,Children
6,206,shirt_tshirt.png,nonliving,k,0.0347850322723,1,8,right,M,Children
6,207,seal_animal.png,living,k,0.155834197998,0,8,right,M,Children
6,208,watercooler.png,nonliving,j,0.0387392044067,0,8,right,M,Children
6,209,teapot.png,nonliving,k,0.372027873993,1,8,right,M,Children
6,210,gingerbreadman.jpg,nonliving,k,0.455525875092,1,8,right,M,Children
6,211,pailGarden.png,nonliving,k,0.572429895401,1,8,right,M,Children
6,212,paper towel.jpg,nonliving,k,0.486176013947,1,8,right,M,Children
6,213,glove_baseball.png,nonliving,k,0.322072982788,1,8,right,M,Children
6,214,bugle.png,nonliving,k,0.405633926392,1,8,right,M,Children
6,215,kite.png,nonliving,k,0.30538392067,1,8,right,M,Children
6,216,gametable_airhockey.png,nonliving,k,0.271992921829,1,8,right,M,Children
6,217,ruler_triangle.png,nonliving,k,0.338865041733,1,8,right,M,Children
6,218,paintcan.jpg,nonliving,k,0.319103002548,1,8,right,M,Children
6,219,eraser.png,nonliving,k,0.221802949905,1,8,right,M,Children
6,220,hair_scrunchie.png,nonliving,k,0.338827848434,1,8,right,M,Children
6,221,lionWalking.png,living,k,0.355355978012,0,8,right,M,Children
6,222,toothbrush.png,nonliving,k,0.422359228134,1,8,right,M,Children
6,223,bumblebee.png,living,k,0.33876991272,0,8,right,M,Children
6,224,pacifier.png,nonliving,k,0.372125148773,1,8,right,M,Children
6,225,building_door.png,nonliving,k,0.672966003418,1,8,right,M,Children
6,226,pillow.png,nonliving,k,1.14072203636,1,8,right,M,Children
6,227,hairband.png,nonliving,k,0.773333072662,1,8,right,M,Children
6,228,glasses_sun.png,nonliving,k,0.369239091873,1,8,right,M,Children
6,229,dog_food.png,nonliving,k,0.455770015717,1,8,right,M,Children
6,230,chalkboarderaser.png,nonliving,k,0.405792951584,1,8,right,M,Children
6,231,number_3.png,nonliving,k,0.255390882492,1,8,right,M,Children
6,232,notepad.jpg,nonliving,k,0.355594158173,1,8,right,M,Children
6,233,shoe_pumps.jpg,nonliving,k,0.271697044373,1,8,right,M,Children
6,234,tricycle.png,nonliving,k,0.151966810226,1,8,right,M,Children
6,235,drainplug.png,nonliving,k,0.322118997574,1,8,right,M,Children
6,236,tap_bathroom.jpg,nonliving,k,0.318818092346,1,8,right,M,Children
6,237,pencilCase.png,nonliving,k,0.322050094604,1,8,right,M,Children
6,238,gloves_winter.png,nonliving,k,0.369168043137,1,8,right,M,Children
6,239,toy_alien.jpg,nonliving,k,0.289494991302,1,8,right,M,Children
6,240,babybottle.jpg,nonliving,k,0.38885807991,1,8,right,M,Children
6,241,cat.png,living,j,0.853596925735,1,8,right,M,Children
6,242,toy_slinky.png,nonliving,k,0.873636960983,1,8,right,M,Children
6,243,boxingGloves.png,nonliving,k,0.655803918839,1,8,right,M,Children
6,244,wreath.png,nonliving,k,0.355395078659,1,8,right,M,Children
6,245,sink.png,nonliving,k,0.305397987366,1,8,right,M,Children
6,246,snow shoes.png,nonliving,k,0.723173141479,1,8,right,M,Children
6,247,chain_rusty.png,nonliving,k,0.455760002136,1,8,right,M,Children
6,248,drill.png,nonliving,k,0.539366960526,1,8,right,M,Children
6,249,dolphin.png,living,k,0.522709846497,0,8,right,M,Children
6,250,socks_winter.png,nonliving,k,0.58939909935,1,8,right,M,Children
6,251,toy_truck.jpg,nonliving,k,0.605690002441,1,8,right,M,Children
6,252,cookie_jar.jpg,nonliving,k,0.505795955658,1,8,right,M,Children
6,253,yarn_ball.png,nonliving,k,0.689782857895,1,8,right,M,Children
6,254,stroller.png,nonliving,k,0.305058002472,1,8,right,M,Children
6,255,plain_rice.jpg,nonliving,k,0.619949817657,1,8,right,M,Children
6,256,seahorse.png,living,k,0.0879590511322,0,8,right,M,Children
6,257,boxtruck.png,nonliving,k,1.12402796745,1,8,right,M,Children
6,258,poles_ski.png,nonliving,k,0.723192930222,1,8,right,M,Children
6,259,birdhouse.png,nonliving,k,0.488942146301,1,8,right,M,Children
6,260,mannequin.jpg,nonliving,k,0.787028074265,1,8,right,M,Children
6,261,lobster.png,living,j,0.940281152725,1,8,right,M,Children
6,262,wateringcan.png,nonliving,k,0.773283958435,1,8,right,M,Children
6,263,dress_blue.jpg,nonliving,k,0.622887134552,1,8,right,M,Children
6,264,firehydrant.png,nonliving,k,0.555921077728,1,8,right,M,Children
6,265,box_chocolate.png,nonliving,k,0.489449977875,1,8,right,M,Children
6,266,pylonTraffic.jpg,nonliving,k,0.355523109436,1,8,right,M,Children
6,267,chest_toys.png,nonliving,k,0.519609928131,1,8,right,M,Children
6,268,crutches.jpg,nonliving,k,0.606083154678,1,8,right,M,Children
6,269,candydispenser.png,nonliving,k,0.338855028152,1,8,right,M,Children
6,270,cane.png,nonliving,k,0.372090101242,1,8,right,M,Children
6,271,gum_pack.png,nonliving,k,0.305466890335,1,8,right,M,Children
6,272,tire_car.png,nonliving,k,0.25493979454,1,8,right,M,Children
6,273,coffeepot.png,nonliving,k,0.806726932526,1,8,right,M,Children
6,274,paddle_bread.png,nonliving,k,0.606280088425,1,8,right,M,Children
6,275,statue_head.png,nonliving,k,0.823440074921,1,8,right,M,Children
6,276,shampoo.jpg,nonliving,k,0.673018932343,1,8,right,M,Children
6,277,hairdryer.png,nonliving,k,0.686728954315,1,8,right,M,Children
6,278,bucket_antique.png,nonliving,k,0.372310161591,1,8,right,M,Children
6,279,partyDress.png,nonliving,k,0.389092922211,1,8,right,M,Children
6,280,inukshuk.png,nonliving,k,0.0711438655853,1,8,right,M,Children
6,281,chair_deck.png,nonliving,k,0.355547189713,1,8,right,M,Children
6,282,candycane.jpg,nonliving,k,0.38894200325,1,8,right,M,Children
6,283,tickets.png,nonliving,k,0.372283935547,1,8,right,M,Children
6,284,barrel.png,nonliving,k,0.438850879669,1,8,right,M,Children
6,285,pirateflag.jpg,nonliving,k,0.36900305748,1,8,right,M,Children
6,286,toothpaste.png,nonliving,k,0.589468955994,1,8,right,M,Children
6,287,doorbolt.png,nonliving,k,0.555948972702,1,8,right,M,Children
6,288,staircase.jpg,nonliving,k,0.371950864792,1,8,right,M,Children
6,289,candy.png,nonliving,k,0.673058986664,1,8,right,M,Children
6,290,diving_board.jpg,nonliving,k,0.670072078705,1,8,right,M,Children
6,291,match.png,nonliving,k,0.388976812363,1,8,right,M,Children
6,292,ladder.png,nonliving,k,0.338747024536,1,8,right,M,Children
6,293,remotecontrol.png,nonliving,k,0.355612039566,1,8,right,M,Children
6,294,mug.png,nonliving,k,0.335831165314,1,8,right,M,Children
6,295,newspaper_stack.png,nonliving,k,0.388943910599,1,8,right,M,Children
6,296,croissant.png,nonliving,k,0.288540124893,1,8,right,M,Children
6,297,pin_clothes.png,nonliving,k,0.138261079788,1,8,right,M,Children
6,298,sandwich_egg.png,nonliving,k,0.288614034653,1,8,right,M,Children
6,299,basketballhoop.png,nonliving,k,0.138345003128,1,8,right,M,Children
6,300,windowblinds.png,nonliving,k,1.07381510735,1,8,right,M,Children
6,301,hose_garden.png,nonliving,k,0.519366025925,1,8,right,M,Children
6,302,hammer.png,nonliving,k,0.338866949081,1,8,right,M,Children
6,303,perfume.png,nonliving,k,0.305199146271,1,8,right,M,Children
6,304,shears_garden.jpg,nonliving,k,0.204836845398,1,8,right,M,Children
6,305,sundae_banana.png,nonliving,k,0.251996994019,1,8,right,M,Children
6,306,candle.png,nonliving,k,0.355491876602,1,8,right,M,Children
6,307,costume_wizard.jpg,nonliving,k,0.522550106049,1,8,right,M,Children
6,308,pyramid.png,nonliving,k,0.338918924332,1,8,right,M,Children
6,309,mouse.jpg,living,k,0.321757793427,0,8,right,M,Children
6,310,buffalo.png,living,j,0.957631111145,1,8,right,M,Children
6,311,tuxedo.jpg,nonliving,k,0.890177965164,1,8,right,M,Children
6,312,toyStroller.jpg,nonliving,k,0.890307188034,1,8,right,M,Children
6,313,pictureframe.png,nonliving,k,0.5896089077,1,8,right,M,Children
6,314,whistle.png,nonliving,k,0.355231046677,1,8,right,M,Children
6,315,weights.png,nonliving,k,0.269010066986,1,8,right,M,Children
6,316,rug.png,nonliving,k,0.0881609916687,1,8,right,M,Children
6,317,toolkit_open.png,nonliving,k,0.990326881409,1,8,right,M,Children
6,318,mop.png,nonliving,k,0.572822093964,1,8,right,M,Children
6,319,fuzzydice.jpg,nonliving,"",,0,8,right,M,Children
6,320,clock_digital.png,nonliving,k,0.903988838196,1,8,right,M,Children
6,321,swan.png,living,k,0.656493902206,0,8,right,M,Children
6,322,car_FerrariRed.jpg,nonliving,k,1.02085208893,1,8,right,M,Children
6,323,stick_ice hockey.png,nonliving,k,0.756574869156,1,8,right,M,Children
6,324,thermometer.png,nonliving,k,0.138523101807,1,8,right,M,Children
6,325,thumbtack.png,nonliving,k,0.756690979004,1,8,right,M,Children
6,326,penguin.png,living,j,1.17440700531,1,8,right,M,Children
6,327,englishmuffin.png,nonliving,k,0.889741897583,1,8,right,M,Children
6,328,ball_8.png,nonliving,k,0.739855051041,1,8,right,M,Children
6,329,flute_wooden.png,nonliving,k,0.689582109451,1,8,right,M,Children
6,330,kangaroo.png,living,k,0.101549863815,0,8,right,M,Children
6,331,soap_bottle.png,nonliving,j,0.0880761146545,0,8,right,M,Children
6,332,bin_recycling.png,nonliving,k,0.522358894348,1,8,right,M,Children
7,1,puzzlepiece.png,nonliving,k,1.15734004974,1,8,right,F,Children
7,2,flamingo.png,living,j,1.14018297195,1,8,right,F,Children
7,3,loofah.png,nonliving,k,1.09057188034,1,8,right,F,Children
7,4,macaroni.png,nonliving,"",,0,8,right,F,Children
7,5,squirrel.jpg,living,j,1.02413415909,1,8,right,F,Children
7,6,elephant.png,living,j,0.974034070969,1,8,right,F,Children
7,7,notepad.jpg,nonliving,k,0.890337944031,1,8,right,F,Children
7,8,tablePingPong.jpg,nonliving,k,0.906782865524,1,8,right,F,Children
7,9,wirebeadmaze.png,nonliving,k,0.706526994705,1,8,right,F,Children
7,10,hedgehog.png,living,j,0.723222017288,1,8,right,F,Children
7,11,giftbow01.png,nonliving,k,0.853863954544,1,8,right,F,Children
7,12,toolkit_open.png,nonliving,k,0.890394926071,1,8,right,F,Children
7,13,shield_antique.png,nonliving,k,0.706551074982,1,8,right,F,Children
7,14,street sweeper.png,nonliving,k,0.489159822464,1,8,right,F,Children
7,15,plain_rice.jpg,nonliving,k,0.907084941864,1,8,right,F,Children
7,16,telescope.png,nonliving,k,0.856902837753,1,8,right,F,Children
7,17,carton_eggs.png,nonliving,k,0.572766065598,1,8,right,F,Children
7,18,costume_wizard.jpg,nonliving,k,0.90721821785,1,8,right,F,Children
7,19,outhouse.png,nonliving,k,0.873599052429,1,8,right,F,Children
7,20,whistle.png,nonliving,k,0.723955154419,1,8,right,F,Children
7,21,saw.png,nonliving,k,0.723304033279,1,8,right,F,Children
7,22,crown.png,nonliving,k,0.706285953522,1,8,right,F,Children
7,23,watercolorpaintset.png,nonliving,k,0.672739982605,1,8,right,F,Children
7,24,coin.jpg,nonliving,k,0.656438112259,1,8,right,F,Children
7,25,key_car.png,nonliving,k,0.606231927872,1,8,right,F,Children
7,26,barrel.png,nonliving,k,0.68977189064,1,8,right,F,Children
7,27,escalator.png,nonliving,k,0.670004844666,1,8,right,F,Children
7,28,toys_lego.png,nonliving,k,0.68976020813,1,8,right,F,Children
7,29,bench_park.png,nonliving,k,0.689773082733,1,8,right,F,Children
7,30,domino.png,nonliving,k,0.689795017242,1,8,right,F,Children
7,31,shrimp.png,nonliving,k,0.9401679039,1,8,right,F,Children
7,32,scooter.png,nonliving,k,0.89027094841,1,8,right,F,Children
7,33,sign_washroom.png,nonliving,k,1.007365942,1,8,right,F,Children
7,34,guineaPig.png,living,j,0.940479040146,1,8,right,F,Children
7,35,gum_pack.png,nonliving,k,0.906920909882,1,8,right,F,Children
7,36,comb.png,nonliving,k,0.954141139984,1,8,right,F,Children
7,37,knife_butter.png,nonliving,k,1.02440404892,1,8,right,F,Children
7,38,ostrich.jpg,living,j,1.12430596352,1,8,right,F,Children
7,39,cane.png,nonliving,k,1.24138498306,1,8,right,F,Children
7,40,mousepad.png,nonliving,k,1.32480096817,1,8,right,F,Children
7,41,tuxedo.jpg,nonliving,k,0.823917150497,1,8,right,F,Children
7,42,tap_bathroom.jpg,nonliving,k,0.773044109344,1,8,right,F,Children
7,43,waterfountain.png,nonliving,k,1.15770411491,1,8,right,F,Children
7,44,antlerheadband.png,nonliving,k,1.00727510452,1,8,right,F,Children
7,45,hat_tuque.png,nonliving,k,0.806749820709,1,8,right,F,Children
7,46,windowblinds.png,nonliving,k,0.47212100029,1,8,right,F,Children
7,47,chalkboarderaser.png,nonliving,k,0.773386955261,1,8,right,F,Children
7,48,drill.png,nonliving,k,0.67310500145,1,8,right,F,Children
7,49,bus_doubledecker.png,nonliving,k,0.706568956375,1,8,right,F,Children
7,50,partyDress.png,nonliving,k,0.773367166519,1,8,right,F,Children
7,51,gingerbreadman.jpg,nonliving,k,1.2081580162,1,8,right,F,Children
7,52,lawnmower.png,nonliving,k,0.89027094841,1,8,right,F,Children
7,53,megaphone.png,nonliving,k,0.606371164322,1,8,right,F,Children
7,54,plasticChairGreen.jpg,nonliving,k,0.756656885147,1,8,right,F,Children
7,55,hoodieGray.jpg,nonliving,k,0.790031194687,1,8,right,F,Children
7,56,snow globe.png,nonliving,k,0.940505027771,1,8,right,F,Children
7,57,lamp_street.png,nonliving,k,0.686762094498,1,8,right,F,Children
7,58,chest_toys.png,nonliving,k,0.803813934326,1,8,right,F,Children
7,59,kite.png,nonliving,k,0.656461954117,1,8,right,F,Children
7,60,spoons_measuring.jpg,nonliving,k,0.556019067764,1,8,right,F,Children
7,61,soap.png,nonliving,k,0.856986999512,1,8,right,F,Children
7,62,dog_cockerspaniel.jpg,living,j,0.990700006485,1,8,right,F,Children
7,63,glove_baseball.png,nonliving,k,0.987627029419,1,8,right,F,Children
7,64,milk_shake.jpg,nonliving,k,0.606392860413,1,8,right,F,Children
7,65,kitchen sink.jpg,nonliving,k,0.53938293457,1,8,right,F,Children
7,66,horn_french.png,nonliving,k,0.522858858109,1,8,right,F,Children
7,67,binoculars.png,nonliving,k,0.589473009109,1,8,right,F,Children
7,68,noisemaker.jpg,nonliving,k,0.589575052261,1,8,right,F,Children
7,69,ghost.png,nonliving,k,0.623042106628,1,8,right,F,Children
7,70,figurine_ballerina.jpg,nonliving,k,0.790060043335,1,8,right,F,Children
7,71,bag_garbage.png,nonliving,k,0.622968912125,1,8,right,F,Children
7,72,birdhouse.png,nonliving,k,0.572740077972,1,8,right,F,Children
7,73,drinkingfountain.png,nonliving,k,0.455856800079,1,8,right,F,Children
7,74,cake_cheese.png,nonliving,k,0.389015197754,1,8,right,F,Children
7,75,doorbolt.png,nonliving,k,0.372313022614,1,8,right,F,Children
7,76,oven.png,nonliving,k,0.505929946899,1,8,right,F,Children
7,77,pencilCase.png,nonliving,k,0.58949303627,1,8,right,F,Children
7,78,toy_jack-in-the-box.jpg,nonliving,k,0.756678819656,1,8,right,F,Children
7,79,rug.png,nonliving,k,0.906982898712,1,8,right,F,Children
7,80,poles_ski.png,nonliving,k,0.873621940613,1,8,right,F,Children
7,81,bandage.jpg,nonliving,k,0.853878974915,1,8,right,F,Children
7,82,bagel.png,nonliving,k,0.957159996033,1,8,right,F,Children
7,83,toyStroller.jpg,nonliving,k,0.8233730793,1,8,right,F,Children
7,84,pin_clothes.png,nonliving,k,0.569772005081,1,8,right,F,Children
7,85,shirt_tshirt.png,nonliving,k,0.435777902603,1,8,right,F,Children
7,86,doghouse.png,nonliving,k,0.305360078812,1,8,right,F,Children
7,87,worldmap.png,nonliving,k,0.706541061401,1,8,right,F,Children
7,88,egg_easter.jpg,nonliving,k,0.890254974365,1,8,right,F,Children
7,89,stroller.png,nonliving,k,0.655951976776,1,8,right,F,Children
7,90,hat_hard.png,nonliving,k,0.455864906311,1,8,right,F,Children
7,91,flipflopsBlue.png,nonliving,k,0.302062988281,1,8,right,F,Children
7,92,tickets.png,nonliving,k,0.756620883942,1,8,right,F,Children
7,93,cake_wedding.png,nonliving,k,0.439204931259,1,8,right,F,Children
7,94,box_chocolate.png,nonliving,k,0.873594999313,1,8,right,F,Children
7,95,shoe_pumps.jpg,nonliving,k,0.837200164795,1,8,right,F,Children
7,96,grillGas.jpg,nonliving,k,0.656392097473,1,8,right,F,Children
7,97,firstAidKit.png,nonliving,k,0.656429052353,1,8,right,F,Children
7,98,shears_garden.jpg,nonliving,k,0.68668794632,1,8,right,F,Children
7,99,pylonTraffic.jpg,nonliving,k,0.536362886429,1,8,right,F,Children
7,100,englishmuffin.png,nonliving,k,0.823357105255,1,8,right,F,Children
7,101,1bird_canadiangoose.jpg,living,j,1.07111096382,1,8,right,F,Children
7,102,bowtie.jpg,nonliving,k,0.957194805145,1,8,right,F,Children
7,103,pailGarden.png,nonliving,k,0.371975898743,1,8,right,F,Children
7,104,caribou.png,living,k,0.45583486557,0,8,right,F,Children
7,105,candy.png,nonliving,k,1.05753493309,1,8,right,F,Children
7,106,paddle_bread.png,nonliving,k,0.954180955887,1,8,right,F,Children
7,107,firehydrant.png,nonliving,k,0.623106956482,1,8,right,F,Children
7,108,sheep.jpg,living,j,0.890439033508,1,8,right,F,Children
7,109,tiger_white.png,living,j,0.806850910187,1,8,right,F,Children
7,110,toothbrush.png,nonliving,k,0.756708145142,1,8,right,F,Children
7,111,hat_party.png,nonliving,k,1.05744218826,1,8,right,F,Children
7,112,feather.png,nonliving,"",,0,8,right,F,Children
7,113,statue_head.png,nonliving,k,0.65643787384,1,8,right,F,Children
7,114,cup.jpg,nonliving,k,0.539156198502,1,8,right,F,Children
7,115,cloud.png,nonliving,k,0.97375202179,1,8,right,F,Children
7,116,ring_diamond.png,nonliving,k,0.773266792297,1,8,right,F,Children
7,117,glasses_sun.png,nonliving,k,0.506021022797,1,8,right,F,Children
7,118,soap_bottle.png,nonliving,k,0.489234924316,1,8,right,F,Children
7,119,diving_board.jpg,nonliving,k,0.389127969742,1,8,right,F,Children
7,120,tray_icecube.png,nonliving,k,0.355504989624,1,8,right,F,Children
7,121,dog_leash.jpg,nonliving,k,0.452806949615,1,8,right,F,Children
7,122,truck_tanker.png,nonliving,k,0.405560016632,1,8,right,F,Children
7,123,washingmachine.png,nonliving,k,0.489153146744,1,8,right,F,Children
7,124,snow shoes.png,nonliving,k,0.37225985527,1,8,right,F,Children
7,125,caterpillar_green.png,living,j,0.907190084457,1,8,right,F,Children
7,126,clock_digital.png,nonliving,k,0.85684800148,1,8,right,F,Children
7,127,brush_paint.png,nonliving,k,0.572891950607,1,8,right,F,Children
7,128,potFlowerClay.png,nonliving,k,0.439116001129,1,8,right,F,Children
7,129,balloon.jpg,nonliving,k,0.639778137207,1,8,right,F,Children
7,130,glassBall.jpg,nonliving,k,0.472222089767,1,8,right,F,Children
7,131,pirateflag.jpg,nonliving,k,0.656162023544,1,8,right,F,Children
7,132,fish_swordfish.png,living,j,0.906893968582,1,8,right,F,Children
7,133,bat_baseball.png,nonliving,k,0.890055894852,1,8,right,F,Children
7,134,cautionSignFrench.png,nonliving,k,0.57275891304,1,8,right,F,Children
7,135,boots_hiking.png,nonliving,k,0.455777168274,1,8,right,F,Children
7,136,building_door.png,nonliving,k,0.556156158447,1,8,right,F,Children
7,137,perfume.png,nonliving,k,0.519665002823,1,8,right,F,Children
7,138,wreath.png,nonliving,k,0.987251996994,1,8,right,F,Children
7,139,walkitalkie.png,nonliving,"",,0,8,right,F,Children
7,140,cashregister.png,nonliving,k,0.622511863708,1,8,right,F,Children
7,141,toad.png,living,j,1.09088516235,1,8,right,F,Children
7,142,plate_ceramic.png,nonliving,k,0.973945140839,1,8,right,F,Children
7,143,bottle_plasticwater.png,nonliving,k,1.20795202255,1,8,right,F,Children
7,144,staircase.jpg,nonliving,k,0.639527082443,1,8,right,F,Children
7,145,stick_ice hockey.png,nonliving,k,0.422430992126,1,8,right,F,Children
7,146,hair_scrunchie.png,nonliving,k,0.522917985916,1,8,right,F,Children
7,147,weights.png,nonliving,k,0.656472206116,1,8,right,F,Children
7,148,diaper changing station.png,nonliving,k,0.589454174042,1,8,right,F,Children
7,149,statue_metal_man.jpg,nonliving,k,0.622950077057,1,8,right,F,Children
7,150,bucket_antique.png,nonliving,k,0.706485033035,1,8,right,F,Children
7,151,mask_hockeygoalie.png,nonliving,k,0.555799007416,1,8,right,F,Children
7,152,inukshuk.png,nonliving,k,0.890147924423,1,8,right,F,Children
7,153,wallet_blackleather.png,nonliving,k,0.95731306076,1,8,right,F,Children
7,154,owl.png,living,j,0.790094852448,1,8,right,F,Children
7,155,floortile.png,nonliving,k,0.622698068619,1,8,right,F,Children
7,156,laces.jpg,nonliving,k,0.94033908844,1,8,right,F,Children
7,157,babybottle.jpg,nonliving,k,0.703495979309,1,8,right,F,Children
7,158,giftbox.jpg,nonliving,k,0.606281042099,1,8,right,F,Children
7,159,hairdryer.png,nonliving,k,0.673107147217,1,8,right,F,Children
7,160,bicycle.png,nonliving,k,0.505784988403,1,8,right,F,Children
7,161,slide_children.png,nonliving,k,0.639647006989,1,8,right,F,Children
7,162,crutches.jpg,nonliving,k,0.489331960678,1,8,right,F,Children
7,163,remotecontrol.png,nonliving,k,0.48930978775,1,8,right,F,Children
7,164,car_FerrariRed.jpg,nonliving,k,0.723242044449,1,8,right,F,Children
7,165,bells_christmas.png,nonliving,k,0.840339899063,1,8,right,F,Children
7,166,mannequin.jpg,nonliving,k,0.773379087448,1,8,right,F,Children
7,167,mug.png,nonliving,k,0.823441028595,1,8,right,F,Children
7,168,hose_garden.png,nonliving,k,1.05430197716,1,8,right,F,Children
7,169,sink.png,nonliving,k,0.806827068329,1,8,right,F,Children
7,170,lightbulb.png,nonliving,k,0.572824001312,1,8,right,F,Children
7,171,skirt.jpg,nonliving,k,0.505928039551,1,8,right,F,Children
7,172,shampoo.jpg,nonliving,k,0.506098031998,1,8,right,F,Children
7,173,gun_nerf.jpg,nonliving,k,0.539358854294,1,8,right,F,Children
7,174,chips.png,nonliving,k,0.739959955215,1,8,right,F,Children
7,175,paper towel.jpg,nonliving,k,0.672922134399,1,8,right,F,Children
7,176,backpack.png,nonliving,k,0.640015125275,1,8,right,F,Children
7,177,goat.png,living,j,0.823704004288,1,8,right,F,Children
7,178,archery.jpg,nonliving,k,1.15773200989,1,8,right,F,Children
7,179,boxingGloves.png,nonliving,"",,0,8,right,F,Children
7,180,flute_wooden.png,nonliving,k,0.0880608558655,1,8,right,F,Children
7,181,garbageBin.jpg,nonliving,k,0.572934150696,1,8,right,F,Children
7,182,bottle_spray.jpg,nonliving,k,0.439079999924,1,8,right,F,Children
7,183,lifejacket.png,nonliving,k,0.539016008377,1,8,right,F,Children
7,184,pencilsharpener.png,nonliving,k,0.906834840775,1,8,right,F,Children
7,185,ball_8.png,nonliving,"",,0,8,right,F,Children
7,186,ruler_triangle.png,nonliving,k,0.552996873856,1,8,right,F,Children
7,187,dress_blue.jpg,nonliving,k,0.606238126755,1,8,right,F,Children
7,188,donutFloaty.png,nonliving,k,0.522331953049,1,8,right,F,Children
7,189,pliers.png,nonliving,k,0.639738082886,1,8,right,F,Children
7,190,dart.jpg,nonliving,k,0.586462020874,1,8,right,F,Children
7,191,watercooler.png,nonliving,k,0.639713048935,1,8,right,F,Children
7,192,socks_winter.png,nonliving,k,0.572857141495,1,8,right,F,Children
7,193,match.png,nonliving,k,0.639638900757,1,8,right,F,Children
7,194,toy_slinky.png,nonliving,k,0.907038927078,1,8,right,F,Children
7,195,cow.png,living,j,1.25776720047,1,8,right,F,Children
7,196,giraffe.png,living,j,1.12420296669,1,8,right,F,Children
7,197,ladder.png,nonliving,k,0.790030956268,1,8,right,F,Children
7,198,oldBook.png,nonliving,k,0.773392915726,1,8,right,F,Children
7,199,horse.png,living,j,0.756778001785,1,8,right,F,Children
7,200,hammer.png,nonliving,k,0.489243030548,1,8,right,F,Children
7,201,eyeMask.jpg,nonliving,k,0.690039873123,1,8,right,F,Children
7,202,dresser.png,nonliving,k,0.606050014496,1,8,right,F,Children
7,203,scissors.png,nonliving,k,0.6396920681,1,8,right,F,Children
7,204,electricoutlet.png,nonliving,k,0.589435100555,1,8,right,F,Children
7,205,racoon.jpg,living,j,1.09080386162,1,8,right,F,Children
7,206,fuzzydice.jpg,nonliving,"",,0,8,right,F,Children
7,207,mask_black.png,nonliving,k,0.923820972443,1,8,right,F,Children
7,208,playground.png,nonliving,k,0.405771017075,1,8,right,F,Children
7,209,thermometer.png,nonliving,k,0.372262954712,1,8,right,F,Children
7,210,butterfly.png,living,j,0.79008603096,1,8,right,F,Children
7,211,quartz.png,nonliving,j,1.35822415352,0,8,right,F,Children
7,212,basketballhoop.png,nonliving,k,1.23829507828,1,8,right,F,Children
7,213,guacamole.png,nonliving,k,0.519325971603,1,8,right,F,Children
7,214,eraser.png,nonliving,k,0.422446966171,1,8,right,F,Children
7,215,boar.png,living,k,0.385947942734,0,8,right,F,Children
7,216,swing set.jpg,nonliving,k,0.773524045944,1,8,right,F,Children
7,217,paddle.png,nonliving,"",,0,8,right,F,Children
7,218,belt.png,nonliving,k,0.154973983765,1,8,right,F,Children
7,219,babysocks.png,nonliving,k,0.355046033859,1,8,right,F,Children
7,220,dragonfly.png,living,j,0.720143079758,1,8,right,F,Children
7,221,tape.png,nonliving,k,0.622895956039,1,8,right,F,Children
7,222,lock_combination.jpg,nonliving,k,0.372309923172,1,8,right,F,Children
7,223,toy_alien.jpg,nonliving,k,0.138106107712,1,8,right,F,Children
7,224,bin_recycling.png,nonliving,k,1.10764908791,1,8,right,F,Children
7,225,headphones.png,nonliving,k,0.707156896591,1,8,right,F,Children
7,226,toothpaste.png,nonliving,k,0.506018877029,1,8,right,F,Children
7,227,spiderweb.png,nonliving,k,0.171813011169,1,8,right,F,Children
7,228,gametable_airhockey.png,nonliving,k,1.20785188675,1,8,right,F,Children
7,229,whisk_electric.jpg,nonliving,k,0.773349046707,1,8,right,F,Children
7,230,coffeepot.png,nonliving,k,0.469576120377,1,8,right,F,Children
7,231,sword.png,nonliving,k,0.0350229740143,1,8,right,F,Children
7,232,cheeseGouda.png,nonliving,k,0.101850032806,1,8,right,F,Children
7,233,stapler.png,nonliving,k,0.0380530357361,1,8,right,F,Children
7,234,drum_set.png,nonliving,k,1.12416791916,1,8,right,F,Children
7,235,clip_paper.png,nonliving,k,0.75671005249,1,8,right,F,Children
7,236,flashlight.png,nonliving,k,0.455862998962,1,8,right,F,Children
7,237,necklace_pearl.png,nonliving,k,0.853885889053,1,8,right,F,Children
7,238,tire_car.png,nonliving,k,1.04053211212,1,8,right,F,Children
7,239,bugle.png,nonliving,k,1.00729799271,1,8,right,F,Children
7,240,pig.png,living,j,0.957176208496,1,8,right,F,Children
7,241,boxtruck.png,nonliving,k,0.856716156006,1,8,right,F,Children
7,242,drainplug.png,nonliving,k,0.873785972595,1,8,right,F,Children
7,243,origamiPaper.png,nonliving,k,1.04065513611,1,8,right,F,Children
7,244,newspaper_stack.png,nonliving,k,1.25801110268,1,8,right,F,Children
7,245,dust_pan.png,nonliving,k,0.940203905106,1,8,right,F,Children
7,246,towel.png,nonliving,k,0.338881969452,1,8,right,F,Children
7,247,space shuttle.png,nonliving,k,0.385949850082,1,8,right,F,Children
7,248,radioclock.jpg,nonliving,k,0.187903881073,1,8,right,F,Children
7,249,motorcycle.png,nonliving,k,0.689813137054,1,8,right,F,Children
7,250,umbrella.png,nonliving,k,0.422469139099,1,8,right,F,Children
7,251,shoe_sneaker.png,nonliving,k,0.422157049179,1,8,right,F,Children
7,252,smokingpipe.png,nonliving,k,0.5561170578,1,8,right,F,Children
7,253,croissant.png,nonliving,k,0.853566169739,1,8,right,F,Children
7,254,chair_deck.png,nonliving,k,1.03768491745,1,8,right,F,Children
7,255,skates.png,nonliving,k,1.07412099838,1,8,right,F,Children
7,256,pillow.png,nonliving,k,1.02419114113,1,8,right,F,Children
7,257,microwave.png,nonliving,k,0.873631000519,1,8,right,F,Children
7,258,fan.png,nonliving,k,0.840246915817,1,8,right,F,Children
7,259,checkers_board.jpg,nonliving,k,0.957139968872,1,8,right,F,Children
7,260,ambulance.png,nonliving,k,1.22442889214,1,8,right,F,Children
7,261,sandwich_egg.png,nonliving,k,0.706580877304,1,8,right,F,Children
7,262,spotlight.png,nonliving,k,0.505956172943,1,8,right,F,Children
7,263,squid.jpg,living,j,0.956946134567,1,8,right,F,Children
7,264,concreteblock.png,nonliving,k,0.673051118851,1,8,right,F,Children
7,265,compass.png,nonliving,k,0.422215938568,1,8,right,F,Children
7,266,thumbtack.png,nonliving,k,0.8402531147,1,8,right,F,Children
7,267,bucket_halloween.jpg,nonliving,k,1.10725903511,1,8,right,F,Children
7,268,zebra.jpg,living,k,0.489084005356,0,8,right,F,Children
7,269,tricycle.png,nonliving,k,0.823543071747,1,8,right,F,Children
7,270,card_queenspade.png,nonliving,k,1.27479815483,1,8,right,F,Children
7,271,gloves_winter.png,nonliving,k,1.30818891525,1,8,right,F,Children
7,272,gazebo_wooden.png,nonliving,k,1.15466499329,1,8,right,F,Children
7,273,stoveAntique.jpg,nonliving,k,0.990538835526,1,8,right,F,Children
7,274,ball_baseball.png,nonliving,k,0.940475940704,1,8,right,F,Children
7,275,yarn_ball.png,nonliving,k,1.07420516014,1,8,right,F,Children
7,276,cookie_jar.jpg,nonliving,k,0.923801898956,1,8,right,F,Children
7,277,pyramid.png,nonliving,k,0.806787967682,1,8,right,F,Children
7,278,goggles_swim.png,nonliving,k,0.970817804337,1,8,right,F,Children
7,279,bug_ladybug.png,living,j,1.30849194527,1,8,right,F,Children
7,280,dog_bulldog.jpg,living,j,0.786781787872,1,8,right,F,Children
7,281,watergun.png,nonliving,k,0.87379193306,1,8,right,F,Children
7,282,notebook_black.png,nonliving,k,0.388982057571,1,8,right,F,Children
7,283,hairband.png,nonliving,k,0.372249126434,1,8,right,F,Children
7,284,piano_keyboard.png,nonliving,k,0.288720846176,1,8,right,F,Children
7,285,trophy_man.png,nonliving,k,0.37230014801,1,8,right,F,Children
7,286,mop.png,nonliving,k,0.488985061646,1,8,right,F,Children
7,287,puppettheatre.png,nonliving,k,0.505936145782,1,8,right,F,Children
7,288,bread_unleavened.png,nonliving,k,0.455914974213,1,8,right,F,Children
7,289,playdoh.png,nonliving,k,0.469534873962,1,8,right,F,Children
7,290,candycane.jpg,nonliving,k,0.455826044083,1,8,right,F,Children
7,291,brush_makeup.png,nonliving,k,0.572863101959,1,8,right,F,Children
7,292,ribbon.jpg,nonliving,k,0.505961894989,1,8,right,F,Children
7,293,ram.png,living,j,0.837129831314,1,8,right,F,Children
7,294,rolling pin.jpg,nonliving,k,0.589595079422,1,8,right,F,Children
7,295,pictureframe.png,nonliving,k,0.185402870178,1,8,right,F,Children
7,296,cookiecutter_bell.png,nonliving,k,0.589596033096,1,8,right,F,Children
7,297,camera_security.png,nonliving,k,0.79013800621,1,8,right,F,Children
7,298,globe.png,nonliving,k,0.689666986465,1,8,right,F,Children
7,299,net_butterfly.jpg,nonliving,k,0.572824954987,1,8,right,F,Children
7,300,paintcan.jpg,nonliving,k,0.556169986725,1,8,right,F,Children
7,301,chain_rusty.png,nonliving,k,0.62290596962,1,8,right,F,Children
7,302,pool_kiddie.png,nonliving,k,0.439128875732,1,8,right,F,Children
7,303,pen.png,nonliving,k,0.589549064636,1,8,right,F,Children
7,304,candle.png,nonliving,k,1.00729990005,1,8,right,F,Children
7,305,lipstick.png,nonliving,k,0.857027053833,1,8,right,F,Children
7,306,fork.png,nonliving,k,0.65634894371,1,8,right,F,Children
7,307,sled.png,nonliving,k,0.622950792313,1,8,right,F,Children
7,308,rollerblade.png,nonliving,k,0.689514875412,1,8,right,F,Children
7,309,toy_truck.jpg,nonliving,k,0.873471021652,1,8,right,F,Children
7,310,chipmunk.jpg,living,j,1.00702905655,1,8,right,F,Children
7,311,television.png,nonliving,k,0.753705978394,1,8,right,F,Children
7,312,plunger.png,nonliving,k,0.589563846588,1,8,right,F,Children
7,313,hyaena.jpg,living,j,0.974049091339,1,8,right,F,Children
7,314,doublebass.png,nonliving,k,0.940545797348,1,8,right,F,Children
7,315,ice cubes.png,nonliving,k,0.723311901093,1,8,right,F,Children
7,316,wateringcan.png,nonliving,k,0.689959049225,1,8,right,F,Children
7,317,pitcher_plastic.png,nonliving,k,0.488973140717,1,8,right,F,Children
7,318,snorkle.jpg,nonliving,k,0.536134004593,1,8,right,F,Children
7,319,qtip.png,nonliving,k,0.469499826431,1,8,right,F,Children
7,320,sundae_banana.png,nonliving,k,0.572796106339,1,8,right,F,Children
7,321,cinnamonroll.png,nonliving,k,0.723342895508,1,8,right,F,Children
7,322,panda.jpg,living,j,0.823188066483,1,8,right,F,Children
7,323,bed.png,nonliving,k,0.823267936707,1,8,right,F,Children
7,324,hanger.png,nonliving,k,0.623021841049,1,8,right,F,Children
7,325,candydispenser.png,nonliving,k,0.689633131027,1,8,right,F,Children
7,326,number_3.png,nonliving,k,0.873600959778,1,8,right,F,Children
7,327,dog_food.png,nonliving,k,0.907127141953,1,8,right,F,Children
7,328,rope_skipping.png,nonliving,k,0.790005922318,1,8,right,F,Children
7,329,trafficlight.png,nonliving,k,0.636605024338,1,8,right,F,Children
7,330,teapot.png,nonliving,k,0.438664197922,1,8,right,F,Children
7,331,pacifier.png,nonliving,k,0.372329950333,1,8,right,F,Children
7,332,toilet.png,nonliving,k,0.203908920288,1,8,right,F,Children
10,1,mouse.jpg,living,j,0.656167030334,1,8,right,male,Children
10,2,bean bag chair.png,nonliving,k,0.970582962036,1,8,right,male,Children
10,3,shampoo.jpg,nonliving,k,1.03741502762,1,8,right,male,Children
10,4,boxingGloves.png,nonliving,k,0.823505878448,1,8,right,male,Children
10,5,napkin_ring.png,nonliving,k,0.556080818176,1,8,right,male,Children
10,6,pictureframe.png,nonliving,k,0.639722108841,1,8,right,male,Children
10,7,lock_combination.jpg,nonliving,k,0.589600086212,1,8,right,male,Children
10,8,portapotty.png,nonliving,k,0.636582136154,1,8,right,male,Children
10,9,basket_straw.png,nonliving,k,0.556492090225,1,8,right,male,Children
10,10,bib.png,nonliving,k,0.723149061203,1,8,right,male,Children
10,11,camel.png,living,j,0.806872844696,1,8,right,male,Children
10,12,gazebo_wooden.png,nonliving,k,0.75671505928,1,8,right,male,Children
10,13,grasshopper.png,living,j,0.790014982224,1,8,right,male,Children
10,14,dust_pan.png,nonliving,k,0.639588832855,1,8,right,male,Children
10,15,spiderweb.png,nonliving,k,1.02412390709,1,8,right,male,Children
10,16,candelabra.jpg,nonliving,k,0.739874839783,1,8,right,male,Children
10,17,plain_rice.jpg,nonliving,k,1.0574259758,1,8,right,male,Children
10,18,milk_shake.jpg,nonliving,k,1.09097194672,1,8,right,male,Children
10,19,potFlowerClay.png,nonliving,k,0.856906890869,1,8,right,male,Children
10,20,tiara.png,nonliving,k,0.706521987915,1,8,right,male,Children
10,21,cane.png,nonliving,k,0.586485862732,1,8,right,male,Children
10,22,shears_garden.jpg,nonliving,k,0.522715091705,1,8,right,male,Children
10,23,motorcycle.png,nonliving,k,0.706470012665,1,8,right,male,Children
10,24,smokingpipe.png,nonliving,k,0.5393679142,1,8,right,male,Children
10,25,chips.png,nonliving,k,0.623090028763,1,8,right,male,Children
10,26,pencilCase.png,nonliving,k,0.572807073593,1,8,right,male,Children
10,27,horn_french.png,nonliving,k,0.556109905243,1,8,right,male,Children
10,28,box_chocolate.png,nonliving,k,0.489338874817,1,8,right,male,Children
10,29,toolkit_open.png,nonliving,k,0.522690057755,1,8,right,male,Children
10,30,number_3.png,nonliving,k,0.73998093605,1,8,right,male,Children
10,31,helicopter.jpg,nonliving,k,0.973942995071,1,8,right,male,Children
10,32,chick.png,living,j,1.05745697021,1,8,right,male,Children
10,33,dreamcatcher.png,nonliving,k,0.706317186356,1,8,right,male,Children
10,34,cheeseGouda.png,nonliving,k,0.820150852203,1,8,right,male,Children
10,35,boxtruck.png,nonliving,k,1.05748605728,1,8,right,male,Children
10,36,swing set.jpg,nonliving,k,1.1546869278,1,8,right,male,Children
10,37,ruler_triangle.png,nonliving,k,0.873713970184,1,8,right,male,Children
10,38,sled.png,nonliving,k,0.622914075851,1,8,right,male,Children
10,39,water well.png,nonliving,k,0.873584032059,1,8,right,male,Children
10,40,trafficlight.png,nonliving,k,0.940604925156,1,8,right,male,Children
10,41,hoodieGray.jpg,nonliving,k,0.823269128799,1,8,right,male,Children
10,42,car_FerrariRed.jpg,nonliving,k,0.606297016144,1,8,right,male,Children
10,43,globe.png,nonliving,k,0.523428201675,1,8,right,male,Children
10,44,plunger.png,nonliving,k,0.689850091934,1,8,right,male,Children
10,45,mousepad.png,nonliving,k,0.789995908737,1,8,right,male,Children
10,46,toy_jack-in-the-box.jpg,nonliving,k,1.02401208878,1,8,right,male,Children
10,47,bells_christmas.png,nonliving,k,1.22454690933,1,8,right,male,Children
10,48,knife_butter.png,nonliving,k,0.723204135895,1,8,right,male,Children
10,49,stapler.png,nonliving,k,0.505929946899,1,8,right,male,Children
10,50,notebook_black.png,nonliving,k,0.556082010269,1,8,right,male,Children
10,51,gametable_airhockey.png,nonliving,k,0.556200027466,1,8,right,male,Children
10,52,letter_mail.png,nonliving,k,0.502894163132,1,8,right,male,Children
10,53,firstAidKit.png,nonliving,k,0.58949303627,1,8,right,male,Children
10,54,boat.png,nonliving,k,0.51961183548,1,8,right,male,Children
10,55,sign_washroom.png,nonliving,k,0.422358989716,1,8,right,male,Children
10,56,thumbtack.png,nonliving,k,0.422518014908,1,8,right,male,Children
10,57,paddle_bread.png,nonliving,k,0.622867107391,1,8,right,male,Children
10,58,key_car.png,nonliving,k,0.455796003342,1,8,right,male,Children
10,59,brush_paint.png,nonliving,k,0.522657871246,1,8,right,male,Children
10,60,waterfountain.png,nonliving,k,0.439334154129,1,8,right,male,Children
10,61,pajamas.png,nonliving,k,0.522677898407,1,8,right,male,Children
10,62,bucket_antique.png,nonliving,k,0.472364902496,1,8,right,male,Children
10,63,lawnmower.png,nonliving,k,0.506058931351,1,8,right,male,Children
10,64,remotecontrol.png,nonliving,k,0.536381006241,1,8,right,male,Children
10,65,fuzzydice.jpg,nonliving,k,0.954071044922,1,8,right,male,Children
10,66,peppermill.png,nonliving,k,1.04077601433,1,8,right,male,Children
10,67,razor.png,nonliving,k,0.556222915649,1,8,right,male,Children
10,68,handbag.png,nonliving,k,0.422446012497,1,8,right,male,Children
10,69,eraser.png,nonliving,k,0.586438894272,1,8,right,male,Children
10,70,dryingmachine02.png,nonliving,k,0.706593036652,1,8,right,male,Children
10,71,coffeepot.png,nonliving,k,0.723232030869,1,8,right,male,Children
10,72,tomato sauce.jpg,nonliving,k,0.522699832916,1,8,right,male,Children
10,73,tuxedo.jpg,nonliving,k,0.606318950653,1,8,right,male,Children
10,74,pylonTraffic.jpg,nonliving,k,0.439421892166,1,8,right,male,Children
10,75,gum_pack.png,nonliving,k,0.419238805771,1,8,right,male,Children
10,76,flashlight.png,nonliving,k,0.436029911041,1,8,right,male,Children
10,77,lizard.png,living,j,0.775348901749,1,8,right,male,Children
10,78,toothbrush.png,nonliving,k,0.0207560062408,1,8,right,male,Children
10,79,glove_baseball.png,nonliving,k,0.837165117264,1,8,right,male,Children
10,80,shelf_book.png,nonliving,k,0.623104810715,1,8,right,male,Children
10,81,puppettheatre.png,nonliving,k,0.572884082794,1,8,right,male,Children
10,82,macaque.png,living,j,1.05441808701,1,8,right,male,Children
10,83,concreteblock.png,nonliving,k,0.439380884171,1,8,right,male,Children
10,84,statue_head.png,nonliving,k,0.689702033997,1,8,right,male,Children
10,85,microwave.png,nonliving,k,0.706578016281,1,8,right,male,Children
10,86,bird_eagle 2.png,living,j,0.723344087601,1,8,right,male,Children
10,87,lipstick.png,nonliving,k,0.422289133072,1,8,right,male,Children
10,88,ring_diamond.png,nonliving,k,0.770318984985,1,8,right,male,Children
10,89,space shuttle.png,nonliving,k,1.10765910149,1,8,right,male,Children
10,90,bowling pin.png,nonliving,k,0.773324012756,1,8,right,male,Children
10,91,handheldMirror.jpg,nonliving,k,0.639721870422,1,8,right,male,Children
10,92,dog_toy.png,nonliving,k,1.22157502174,1,8,right,male,Children
10,93,dresser.png,nonliving,k,0.636668920517,1,8,right,male,Children
10,94,gun_nerf.jpg,nonliving,k,0.486189842224,1,8,right,male,Children
10,95,bottle_spray.jpg,nonliving,k,0.472529888153,1,8,right,male,Children
10,96,pencilsharpener.png,nonliving,k,0.569839000702,1,8,right,male,Children
10,97,shoe_pumps.jpg,nonliving,k,0.389060020447,1,8,right,male,Children
10,98,pool_kiddie.png,nonliving,k,0.405670881271,1,8,right,male,Children
10,99,candle.png,nonliving,k,0.405768871307,1,8,right,male,Children
10,100,pailGarden.png,nonliving,k,0.523859977722,1,8,right,male,Children
10,101,paintcan.jpg,nonliving,k,0.452799081802,1,8,right,male,Children
10,102,wateringcan.png,nonliving,k,0.486222028732,1,8,right,male,Children
10,103,penguin.png,living,j,0.940718889236,1,8,right,male,Children
10,104,crown.png,nonliving,k,0.505966901779,1,8,right,male,Children
10,105,figurine_ballerina.jpg,nonliving,k,1.12123703957,1,8,right,male,Children
10,106,pillow.png,nonliving,k,0.723353862762,1,8,right,male,Children
10,107,cinnamonroll.png,nonliving,k,1.27528619766,1,8,right,male,Children
10,108,bread_unleavened.png,nonliving,k,0.589522123337,1,8,right,male,Children
10,109,newspaper_stack.png,nonliving,k,0.369255065918,1,8,right,male,Children
10,110,bat_baseball.png,nonliving,k,0.288743972778,1,8,right,male,Children
10,111,stroller.png,nonliving,k,0.405809879303,1,8,right,male,Children
10,112,spoons_measuring.jpg,nonliving,k,0.406018018723,1,8,right,male,Children
10,113,electricoutlet.png,nonliving,k,0.455892801285,1,8,right,male,Children
10,114,street sweeper.png,nonliving,k,0.455815076828,1,8,right,male,Children
10,115,pretzel.png,nonliving,k,0.439152956009,1,8,right,male,Children
10,116,arch.png,nonliving,k,0.806841135025,1,8,right,male,Children
10,117,hammer.png,nonliving,k,0.57284116745,1,8,right,male,Children
10,118,garbageBin.jpg,nonliving,k,0.422387123108,1,8,right,male,Children
10,119,calculator.png,nonliving,k,0.439089775085,1,8,right,male,Children
10,120,stick_ice hockey.png,nonliving,k,0.489326000214,1,8,right,male,Children
10,121,towel.png,nonliving,k,0.606131076813,1,8,right,male,Children
10,122,chalkboarderaser.png,nonliving,k,0.472703933716,1,8,right,male,Children
10,123,lobster.png,living,k,0.322154045105,0,8,right,male,Children
10,124,kite.png,nonliving,k,0.639751911163,1,8,right,male,Children
10,125,crutches.jpg,nonliving,k,0.556082010269,1,8,right,male,Children
10,126,toothpaste.png,nonliving,k,0.603226184845,1,8,right,male,Children
10,127,cup.jpg,nonliving,k,0.790038824081,1,8,right,male,Children
10,128,watercooler.png,nonliving,k,0.572854042053,1,8,right,male,Children
10,129,pacifier.png,nonliving,k,0.556434869766,1,8,right,male,Children
10,130,pencil.png,nonliving,k,0.606209993362,1,8,right,male,Children
10,131,toy_alien.jpg,nonliving,k,0.870574951172,1,8,right,male,Children
10,132,partyDress.png,nonliving,k,0.756789922714,1,8,right,male,Children
10,133,mitten.png,nonliving,k,0.739932060242,1,8,right,male,Children
10,134,magnifyingglass.png,nonliving,k,0.569796085358,1,8,right,male,Children
10,135,tape.png,nonliving,k,0.405709028244,1,8,right,male,Children
